Session_Name_	Trial_Index_	Trial_Recycled_	condition	text	question	expected_key	QUESTION_KEY_PRESSED	QUESTION_RT	QUESTION_ACCURACY	SENTENCE_RT	speechid	paragraphid	counterbalance	LAST_COUNTERBALANCE
P32	1	False	practice	"NY TALE BEGYNDER NU"	"NO QUESTION"	NA	.	-1	-1	4539	1327	-1	0	0
P32	2	False	practice	"Hej alle sammen!"	"NO QUESTION"	NA	.	-1	-1	2216	1327	0	0	0
P32	3	False	practice	"Som I allerede ved, vil vi om lidt tænde for et bål, der vil brænde et skab af – det skab, vi har følt os begrænset af, indelukket i, og som de fleste af os er brudt ud af for at kunne blive lykkeligere."	"NO QUESTION"	NA	.	-1	-1	16970	1327	1	0	0
P32	4	False	practice	"'Men skabe er da ganske praktiske til opbevaring af mangt og meget, ikke sandt?' Jo, opbevaring af værdier, det er rigtigt – men når vi først begynder at sætte spørgsmålstegn ved disse værdier, så føles skabet mere og mere trangt, for det kan ikke rumme vores ideer og følelser mere."	"NO QUESTION"	NA	.	-1	-1	19745	1327	2	0	0
P32	5	False	practice	"'Jamen hvad er der i det skab?' Der er en opfattelse af at kvinder og mænd skal tænke, føle, klæde sig og handle forskelligt – fordi nogle er kvinder og andre er mænd. Kønsroller kalder vi det. Men det rækker faktisk meget længere end bare til roller, vi spiller – rollerne invaderer vores tanker og vores følelser, så vi næsten ikke kan tænke uden for rollen, så længe skabet omslutter os, og i hvert fald først og fremmest føler vi må tage hensyn til dem, der er i skabet..."	"Spørgsmål:\nMener taleren at kønsroller både påvirker hvordan vi handler og tænker?"	1	1	6578	1	34648	1327	3	0	0
P32	6	False	practice	"Når vi endelig bryder ud af skabet og for alvor viser og siger det, der ikke passer i det normative skab, kan vi godt opleve negative reaktioner – men så sandelig også positive – for vi er jo slet ikke alene!"	"NO QUESTION"	NA	.	-1	-1	13914	1327	4	0	0
P32	7	False	practice	"Der er nemlig andre som ligner os mere eller mindre, vi er en broget og mangfoldig flok i alle aldre, hudfarver, kulturelle baggrunde, med og uden handicap, med og uden tro, af forskellig politisk overbevisning, og – vigtigst for os her: af flere forskellige kønsidentiteter og seksuelle orienteringer."	"NO QUESTION"	NA	.	-1	-1	23082	1327	5	0	0
P32	8	False	practice	"Fælles for os er, at vi er en regnbueminoritet i forhold til flertallets skab – men det betyder ikke at majoriteten har ret. Vi vil udefra informere om, at der er andre måder at se tingene på, tilbyde et alternativt syn på livet og verden, som kan hjælpe nogle – især børn og unge – ud af et skab, de mistrives i."	"Spørgsmål:\nMener taleren at minoriteter bør tie med deres verdenssyn?"	2	2	7803	1	24623	1327	6	0	0
P32	9	False	practice	"Lad os brænde skabet med normerne, så vi frigøres fra dem og får retten til at være dem, vi faktisk er!"	"NO QUESTION"	NA	.	-1	-1	7263	1327	7	0	0
P32	10	False	experiment	"NY TALE BEGYNDER NU"	"NO QUESTION"	NA	.	-1	-1	2372	18561	-1	5	5
P32	11	False	experiment	"Kære alle sammen\nJeg tror, alle har en historie om en lærer, der på en eller anden måde har gjort en forskel for os. En lærer, der så vores talent, støttede os i en svær tid eller gjorde os nysgerrige efter at lære mere."	"NO QUESTION"	NA	.	-1	-1	13725	18561	0	5	5
P32	12	False	experiment	"Flemming, min klasselærer, var sådan en lærer. Vi havde ham i dansk igennem 7 år. Han var et trygt og sikkert anker for os. Han var god til at formidle, og så var han til stede i klasseværelset og gjorde det hyggeligt og sjovt at lære."	"NO QUESTION"	NA	.	-1	-1	14620	18561	1	5	5
P32	13	False	experiment	"Alle børn fortjener en superlærer som Flemming. Den slags lærere er vigtige for sammenhængskraften i vores samfund. Det er dem, der har vores børn i hænderne i 10 år i træk. Det er dem, der skal give vores børn et solidt fundament af faglighed. Og det er dem, der skal udvikle vores børn til at blive kloge, selvstændige og kritiske unge.\nLige om lidt er det jeres tur som lærerstuderende. Og jeg er glad for, at I har taget initiativ til konferencen her, så vi kan få talt om, hvordan vi i fælleskab former fremtidens læreruddannelse."	"NO QUESTION"	NA	.	-1	-1	28695	18561	2	5	5
P32	14	False	experiment	"Som I måske ved, har jeg været rundt i landet for at få læreruddannelsen mere ind under huden. For min holdning er, at jeg gerne vil se – med egne øjne – hvordan det står til, inden jeg konkluderer, hvad vi eventuelt skal forandre. Mit indtryk er, at rigtig mange af jer gerne vil ud og være superlærere. I brænder for at undervise alle slags børn. I er ikke bare optaget af fagfagligheden, men også af at inspirere vores børn gennem god formidling."	"NO QUESTION"	NA	.	-1	-1	24809	18561	3	5	5
P32	15	False	experiment	"Og når jeg spørger, hvad der kan være anderledes, så hører jeg egentlig mere end noget andet; at I gerne vil have mere. Mere undervisning, mere praktik, mere læring. Det er en stor gave, at vi har en studentergruppe, der er så engageret. Så er det vores opgave som politikere at sørge for at imødekomme jer på jeres ønsker så godt, vi kan."	"Spørgsmål:\nØnsker de lærerstuderende - ifølge taleren - mere undervisning?"	1	1	4591	1	20528	18561	4	5	5
P32	16	False	experiment	"Der er særligt én ting, som jeg har lagt mærke til, når jeg har været rundt på de forskellige uddannelser. Ligegyldigt hvor jeg kommer – om det er i Hjørring, Vordingborg eller København – så oplever jeg, at der er et ønske om at få læreruddannelsen tættere knyttet til praksis. Mange lærerstuderene er bekymrede for at komme ud i deres første job. Om de er klædt godt nok på. Det kan jeg godt forstå. Det er en kompleks opgave at være lærer i dag."	"NO QUESTION"	NA	.	-1	-1	20278	18561	5	5	5
P32	17	False	experiment	"Jeg var selv i praktik med Knud, der var i praktik som kemilærer. Så bliver det næsten ikke mere 'meta' end det. Det var sidste mandag, at jeg var i praktik på Søndervangsskolen. Her lærte jeg om svovlsyre i 7A. Men jeg blev også klogere på praktikken."	"NO QUESTION"	NA	.	-1	-1	18583	18561	6	5	5
P32	18	False	experiment	"Det var tydeligt, at Knud – som mange andre studerende – så netop praktikken som højdepunktet på uddannelsen. For ham blev uddannelsen først rigtig spændende, da han mødte virkeligheden på Søndervangsskolen og fik sat liv på alle teorierne. Og fik prøvet sig selv af."	"NO QUESTION"	NA	.	-1	-1	15064	18561	7	5	5
P32	19	False	experiment	"Alle steder hører jeg, at de studerende ønsker mere praktik, mere sammenhængende praktik og en bedre overgang fra auditorie til klasseværelse. Den sammenhæng mellem virkeligheden og det, de studerende lærer på uddannelsen, vil jeg gerne være med til at styrke."	"NO QUESTION"	NA	.	-1	-1	15749	18561	8	5	5
P32	20	False	experiment	"Derfor bliver jeg glad, når jeg hører, at kommunerne kalder sig 'meduddannere'. For det er afgørende, at også kommunerne spiller med. Jeg kan ikke bare lovgive om, at jeres uddannelse skal være bedre knyttet til praksis og så læne mig tilbage. Vi har brug for at tænke det hele sammen og gøre det i fællesskab."	"NO QUESTION"	NA	.	-1	-1	22263	18561	9	5	5
P32	21	False	experiment	"Jeg vil gerne insistere på at balancere den her diskussion. For jeg synes, der er en tendens til, at vi politikere gerne vil signalere viljekraft og slagkraft og sige: Yes, her er noget, der ikke fungerer. Vi laver en ny reform!"	"NO QUESTION"	NA	.	-1	-1	13551	18561	10	5	5
P32	22	False	experiment	"Det er måske derfor, jeres uddannelse har været igennem reform efter reform efter reform i de sidste 20 år. Jeg tror, vi kan gøre det klogere. Jeg tror, vi kan vælge at bruge de rammer, der blev lagt for læreruddannelsen i 2013 bedre. Og så se på – hen ad vejen – hvad der eventuelt kræver en lovændring, hvad der kræver økonomi, og hvad der kræver bedre kobling til det kommunale."	"NO QUESTION"	NA	.	-1	-1	21940	18561	11	5	5
P32	23	False	experiment	"Det andet, jeg gerne vil være med til at styrke og tager meget alvorligt, det er de studerendes trivsel. Vi har alt for mange studerende, der er stressede. Ikke bare op til eksamen. Men også på en helt almindelig hverdag. Der gør mig bekymret. For det kan gå hen og blokere for, at I kan blive superlærere."	"NO QUESTION"	NA	.	-1	-1	18366	18561	12	5	5
P32	24	False	experiment	"Jeg er særligt bekymret for jer på lærerstudiet, fordi I oplever den her stress og mistrivsel dobbelt. På den ene side er I selv en del af en stresset ungdomsgeneration, og på den anden side skal I være klædt på til at rumme, at vores børnegruppe i folkeskolen også er det."	"NO QUESTION"	NA	.	-1	-1	14385	18561	13	5	5
P32	25	False	experiment	"Når jeg er ude og besøge gymnasier og spørger eleverne dér, hvad de laver i deres fritid, så siger de: 'Fritid? Vi laver afleveringer.' De føler ikke, at der er tid til at indgå i fælleskaber. Det at lave sine afleveringer, gøre sig umage og være flittig, fylder det hele. Men hvad så med det fælleskab, der var, da man var spejderleder? Eller fodboldtræner? Eller aktiv i en ungdomsforening? Hvad så med den værdi, det giver at være noget for nogen? Hvad sker der med den, hvis det hele går op i at præstere og få gode karakterer?"	"NO QUESTION"	NA	.	-1	-1	33155	18561	14	5	5
P32	26	False	experiment	"Fælleskaber er vigtige. For vi skal kunne hente vores værdier flere steder fra. Og hvis vi har gode fælleskaber, har vi også nemmere ved at sige: Det blev så ikke til et 12-tal den her gang. Men de børn, jeg er svømmelærer for, dem får jeg smilet frem i."	"NO QUESTION"	NA	.	-1	-1	17617	18561	15	5	5
P32	27	False	experiment	"En ting er sikkert: Vi har brug for, at I trives som lærerstuderende. Så I har overskud til at lære og være nysgerrige og blive klogere. For det er også det lys, de skal ud og tænde i elevernes øjne. Nysgerrighedens lys."	"NO QUESTION"	NA	.	-1	-1	12508	18561	16	5	5
P32	28	False	experiment	"Jeg synes, I lærerstuderende er heldige. I kan se frem til – om ikke det fedeste – så det næstfedeste job i verden: jobbet som lærer. Derfor vil jeg gerne sige tak til de lærerstuderende for at tage initiativ til konferencen i dag. I skal vide: Jeres uddannelse er vigtig for mig. Jeres uddannelse er vigtig for regeringen. Jeg er sikker på, at fremtidens fantastiske læreruddannelse, er noget, vi kan skabe i fælleskab."	"NO QUESTION"	NA	.	-1	-1	21755	18561	17	5	5
P32	29	False	experiment	"Tak for ordet."	"NO QUESTION"	NA	.	-1	-1	1504	18561	18	5	5
P32	30	False	experiment	"NY TALE BEGYNDER NU"	"NO QUESTION"	NA	.	-1	-1	2812	7905	-1	5	5
P32	31	False	experiment	"I slutningen af juli 1852 spadserede en ung kvinde på stierne her ved Rønnebæksholm. Hun øvede sig på at holde tale. Det var snart to år siden, at den danske hær slog slesvig-holstenerne i danmarkshistoriens største slag ved Isted. Nu skulle de faldne mindes, og sejren fejres med en folkefest på kampdagen den 25. juli. Festkomiteen havde sikret sig flere af tidens berømtheder som hovedtalere, blandt andre et par af Grundlovens fædre: Digterpræsten Niels Frederik Severin Grundtvig og Carl Ploug, digter og redaktør af avisen Fædrelandet samt Peter Rørdam, en populær bondepræst i Mern."	"NO QUESTION"	NA	.	-1	-1	44913	7905	0	5	5
P32	32	False	experiment	"Da festdagen nærmede sig, rygtedes det, at Mathilde Fibiger også ville tale ved mødet. Det var en sensation! Aldrig før havde en kvinde talt ved et offentligt møde. Og så netop denne kvinde – bare 21 år, berømt og berygtet for at have skrevet romanen Clara Raphaels breve. Mathilde Fibiger var den første i Danmark, som i romanform agiterede for 'damernes emancipation', som hun kaldte det. Hun skrev i en tid, der var gennemsyret af det akademiske borgerskabs og bondestandens oprør mod enevælden, den glødende nationalisme i treårskrigen (1848-51) og Grundlovens indførelse af borgerlige frihedsrettigheder."	"Spørgsmål:\nVar Mathilde Fibiger forfatter som 21-årig?"	1	1	3991	1	44010	7905	1	5	5
P32	33	False	experiment	"Den unge forfatterinde berusede sig i liberalismens idé om det enkelte menneskets ret til at søge sin lykke gennem at udvikle sin personlighed og intellekt. Tankens frihed måtte også gælde kvinder, mente hun. Den idé kom til at koste hende dyrt."	"NO QUESTION"	NA	.	-1	-1	17367	7905	2	5	5
P32	34	False	experiment	"Mathilde Fibigers roman er bygget op som hovedpersonens 12 breve til en veninde. Romanens hovedperson, Clara, ligner sin forfatter til forveksling. Hun er privatlærerinde i provinsen og her bringer hun utålmodigt politik og litteratur på banen ved middagsbordet og ved sammenkomster i omgangskredsen. Men Clara finder ingen genklang – kun løftede øjenbryn og hovedrysten over sine interesser og snaksalighed."	"NO QUESTION"	NA	.	-1	-1	32285	7905	3	5	5
P32	35	False	experiment	"I et let og livligt sprog lader Mathilde Fibiger Clara udfolde sine skarpe iagttagelser af, hvordan moral og konventioner holder kvinder indespærret i et åndeligt fattigdomsfængel, og fra brev nr. 3 runger et ulykkeligt skrig gennem historien: 'For første gang i mit liv føler jeg sorg over at jeg ingen mand er. Hvor fattigt og indholdsløst er ikke vort Liv imod deres? Er det med rette at de halve Mennesker er udelukkede fra al åndelig beskæftigelse? Eller har virkelig Vorherre skabt os af ringere Stof end mændene?'"	"NO QUESTION"	NA	.	-1	-1	37316	7905	4	5	5
P32	36	False	experiment	"Mathilde Fibiger krævede hverken stemmeret, ret til uddannelse eller arbejde. For hende var kernen i 'damernes emancipation' kvindens ret til at udvikle sin ånd og sit intellekt på lige fod med mænd. Eller snarere er det kvindens pligt – hun skriver i Clara Raphael, at 'Gud i hvert menneske har villet udtrykke en guddommelig idé og en særskilt i hver.'"	"NO QUESTION"	NA	.	-1	-1	24324	7905	5	5	5
P32	37	False	experiment	"Nutildags lyder det ikke af meget, men det var uhyre radikalt tænkt i en tidsalder, hvor idealkvinden var hustru, mor og sin mand underdanig; hvor kvindens livsopgave var at pleje sin mand som en potteplante, så han kunne udfolde sine potentialer bedst muligt, og dertil at opdrage sine drenge- og pigebørn til at betragte dette forhold mellem kønnene som naturligt. Derfor var bogens slutning så provokerende: Mathilde Fibiger lader Clara forelsker sig i en ung, smuk og klog baron. "	"NO QUESTION"	NA	.	-1	-1	33479	7905	6	5	5
P32	38	False	experiment	"De hede følelser er ved at føre hende bort fra sit religiøse livsprojekt, nemlig at udvikle det frø af ånd og intellekt, Gud har sået i hende – det ved Clara jo er umuligt for gifte kvinder – og for at få det hele til at gå op, lader Mathilde Fibiger de to elskende forenes i et broder-søsterligt ægteskab."	"NO QUESTION"	NA	.	-1	-1	21149	7905	7	5	5
P32	39	False	experiment	"Romanen vakte almindeligt ramaskrig og en længere litterær fejde. Flertallet af anmeldere var rent ud forargede både over emancipationskravet og cølibatægteskabet – begge dele var i modstrid med både Guds vilje og naturens orden."	"NO QUESTION"	NA	.	-1	-1	15156	7905	8	5	5
P32	40	False	experiment	"Mathildes familie blev opbragt over, at hun havde udgivet en roman uden deres vidende, så hun blev hentet hjem fra sit lærerindejob på Lolland, og anbragt hos en farbror. Her mødte hun Grundtvig, som havde anmeldt romanen rosende, og Grundtvigs hustru, Marie Toft, som ejede Rønnebæksholm – en arv fra hendes første mand. Marie Toft var en klog og viljestærk kvinde – og havde som andre enker personlig myndighed og råderet over sin formue."	"NO QUESTION"	NA	.	-1	-1	26405	7905	9	5	5
P32	41	False	experiment	"Hun drev godset eksemplarisk, og var landbrugspolitisk fremsynet, tilbød eksempelvis tidligt godsets fæstebønder deres gårde til arvefæste, og senere til selveje. Da den offentlige blæst om romanen havde lagt sig, tillod Mathilde Fibigers storebror Axel, der var hendes værge, hende at bo hos ægteparret på Rønnebæksholm i nogle måneder. "	"NO QUESTION"	NA	.	-1	-1	25643	7905	10	5	5
P32	42	False	experiment	"Og det var her, at Grundtvig opfordrede Mathilde til at kaste sig ud i vovestykket med den offentlige tale ved mindefesten i Næstved, og derfor travede hun nu af sted og forberedte sig på begivenheden ved at tale højt for sig selv, skovens fugle og markens dyr."	"NO QUESTION"	NA	.	-1	-1	13710	7905	11	5	5
P32	43	False	experiment	"Snart løb rygtet, og det nåede Mathildes familie. Hendes søskende tog affære som om, der var en naturkatastrofe under opsejling; de anså rent ud Mathilde for at være utilregnelig. En bror skrev til festkomiteens formand, og nedlagde på familiens vegne forbud mod talen, Axel og storesøster Ilja skrev til henholdsvis Grundtvig og Marie og bad dem hindre Mathilde Fibiger at forlade Rønnebæksholm. Men det ønske kom de ikke langt med. I sit svar understregede Marie Toft, 'at hverken Grundtvig eller jeg anser os for berettigede til at lukke Deres søster inde.'"	"NO QUESTION"	NA	.	-1	-1	28390	7905	12	5	5
P32	44	False	experiment	"På trods af støtten fra sine indflydelsesrige værtsfolk fik Mathilde Fibiger aldrig lov til at holde sin tale for andre end markens dyr og fugle. I samme øjeblik hun besteg festens talerstol, gik et stort mandfolk, godsejeren fra Flensborggården, hurtigt bag om ryggen på hende, og med et rask tag om hendes smalle liv løftede han hende ned på jorden. Dér stod hun så til spot for festens deltagere. Om nogen – for eksempel Grundtvig – gjorde indsigelser mod denne håndfaste behandling af en ung kvinde med høje frihedsidealer, melder historien intet om."	"Spørgsmål:\nHoldt Mathilde Fibiger sin tale fra talestolen?"	2	2	4032	1	31187	7905	13	5	5
P32	45	False	experiment	"Mathilde Fibiger er en af danmarkshistoriens heltinder. I en tid, hvor både gifte og ugifte kvinder var personligt og økonomisk umyndige, insisterede på at klare sig selv økonomisk, og selv bestemme, hvor hun boede, og hvilket arbejde hun tog. Hendes storebror og værge insisterede på, at det bestemte han. Til sidst så Mathilde ingen anden udvej end at true ham med de magtesløses våben: 'Fra den tid af, da du kan have dette brev, begynder jeg at sulte mig; hvis jeg ikke skal sulte ihjel, må jeg snarest muligt have dit klart og tydeligt affattede skriftlige samtykke til min plan. Du kan ikke gøre regning på at få Grundtvigs til at hindre det. De ville ikke anvende, og de tåler heller ikke, at nogen vil øve vold imod mig, så længe jeg er hos dem.' "	"NO QUESTION"	NA	.	-1	-1	49077	7905	14	5	5
P32	46	False	experiment	"'Nu skal vi se, om ikke den stærkeste bliver mig, skønt jeg er svagest; thi jeg kæmper for min frihed, der er mig kærere end livet!'"	"NO QUESTION"	NA	.	-1	-1	8887	7905	15	5	5
P32	47	False	experiment	"Så fik Mathilde Fibiger sin vilje. Ung, umyndig, men egensindig, modig og viljefast klarede hun sig selv, i de første år på sultegrænsen som skjortesyerske. Senere hjalp indflydelsesrige mænd hende til en uddannelse som Danmarks første, kvindelige telegrafist og ansættelse som første, kvindelige statstjenestemand. Og bemærk, hvor mange mænd, der hjalp hende. Kampen for ligestilling mellem kønnene har nemlig altid stået mellem demokratiske kvinder og mænd mod udemokratiske kvinder og mænd."	"NO QUESTION"	NA	.	-1	-1	31303	7905	16	5	5
P32	48	False	experiment	"Balladen om Mathilde Fibigers festtale og hendes vanskeligheder med at få lov til at leve et selvstændigt liv, viser i hvor lille grad Grundlovens frihedsrettigheder til at tale og tænke og tro og leve som man vil omfattede kvinder."	"NO QUESTION"	NA	.	-1	-1	16244	7905	17	5	5
P32	49	False	experiment	"Men det gik trinvist fremad, og i 1925 var der stort set opnået formel ligestilling i politik, i retten til uddannelse og i ægteskabet, hvor gifte kvinder i 1922 langt om længe fik forældreret til de børn, de fødte i ægteskabet, på lige fod med faren."	"NO QUESTION"	NA	.	-1	-1	13063	7905	18	5	5
P32	50	False	experiment	"Men oldnordiske tankemønstre blev ved at præge mentaliteten, og det mærkede jeg selv som barn og ung. I slutningen af juli 1969, altså for snart 50 år siden, rejste amerikanerne ud i rummet for at plante Stars and Stripes på månen. Neil Armstrong satte foden på det ukendte land med ordene: 'et lille skridt for mig, men et gigantisk spring for menneskeheden'. Jeg var 12, så det på sort-hvidt fjernsyn som et eventyr helt i forlængelse af mine yndlingsbøger: Ivanhoe, De Tre Musketerer og En Verdensomsejling Under Havet. "	"NO QUESTION"	NA	.	-1	-1	27224	7905	19	5	5
P32	51	False	experiment	"Så snart jeg kom i skole, overtalte jeg sammen med nogle kammerater vores geografilærer til at tale om månerejser. Han var lige så fascineret som os og fortalte malende om vores solsystem og rumfartsprogrammet. Men en vigtig ting kom han slet ikke ind på, så jeg stak fingeren i vejret og spurgte undrende: 'Hvorfor er der ingen kvindelige astronauter?'"	"NO QUESTION"	NA	.	-1	-1	16759	7905	20	5	5
P32	52	False	experiment	"Så lagde han cerutten i tavlens kridtrende – jo, dengang måtte lærerne ryge i klasseværelset! – lænede sig ud over katederet, rømmede sig, og sagde med alvor i stemmen: 'Det er, fordi kvinder har menstruation'. Jeg kan stadig mærke skammen stiger op i kroppen. Menstruation var ikke noget, man nævnte når der var drenge til stede. Med en enkelt sætning satte han, min beundrede lærer, mig uden for den store spændende verden sammen med mine veninder, vores mødre, tanter og lærerinder. Pludselig gik det op for mig, at det var drengekammeraterne i klassen, der skulle være opdagelsesrejsende, musketerer og astronauter – selvom mange af dem var ikke nær så gode til matematik og geografi som jeg og mine bedste veninder."	"NO QUESTION"	NA	.	-1	-1	35365	7905	21	5	5
P32	53	False	experiment	"Jeg hævnede mig ved at glemme min geografilærers navn, men har ofte sendt ham en knytnæve i tankerne - som da jeg løb et maraton i 1986 ... med menstruation. Det var blot fire år efter, at den Olympiske Komité endelig gav kvinder lov til at løbe maraton til de olympiske lege. Senere i livet har jeg brugt geografilæreren som argument overfor folk, der hævder, at verden ikke bliver bedre, fordi der kommer en kvindelig statsminister, professor, biskop eller kvinder på andre magtfulde poster i samfundet. 'De fører jo samme politik som mænd,' lyder argumentet. Ja vist. Men derfor er verden nu alligevel blevet bedre for 12-års piger, som i dag har udkig til voksne kvinder, der har rokket alvorligt ved antagelserne om, hvilke grænser biologien sætter for kvinders livsudfoldelse."	"NO QUESTION"	NA	.	-1	-1	41691	7905	22	5	5
P32	54	False	experiment	"Min mor – hun hed Lilly – tilhørte sidste generation, som blev opdraget med, at kvindens mål og pligt i livet er at holde hjemmet skinnende, ungerne vandkæmmede og manden så tilfreds, at han villigt går på arbejde og henter en løn hjem, der kan forsørge familien. I 1960 var der i Danmark 860.000 hjemmegående husmødre, der blev forsørget af deres mand. 30 år senere i 1990 var arbejdsstyrken steget med 800.000 personer – de 700.000 var kvinder. Og så skiftede forestillingen om den perfekte kvinde og det ideelle kvindeliv. Ægteskabet holdt op med at være 'den bedste sociale elevator for kvinden', som sociologiprofessor Svalastoga skrev i 1959. Det var en revolution."	"NO QUESTION"	NA	.	-1	-1	36106	7905	23	5	5
P32	55	False	experiment	"I dag er kvinders sociale anseelse hovedsagelig afhængig af deres status på arbejdsmarkedet, uanset om de er gift eller ej. Ingen forældre råder nu til dags deres pigebørn til at finde sig en god forsørger. En god uddannelse, så man kan forsørge sig selv – og børnene, hvis man engang bliver skilt – er et meget bedre råd. Samtidig har forældreskabet ændret sig; bortset fra bilernes omfang er den største ændring i gadebilledet de mange mænd med børn i barnevogne, i bæreseler, på cykler og ved hånden. Det så man kun meget sjældent, da jeg var barn."	"NO QUESTION"	NA	.	-1	-1	29440	7905	24	5	5
P32	56	False	experiment	"Ændringerne i forholdet mellem mænd og kvinder er gået hurtigt, ofte hurtigere end følelserne har kunnet følge med til, og med mellemrum bølger længslen efter gamle dages mere skarptskårne kønsroller. Nostalgien afspejler kvindebevægelsens evige dilemma: Ligesom andre store revolutionerende bevægelser, har kvindebevægelsens selvforståelse været, at feminismen bevæger samfundet fra undertrykkelse mod frigørelse, fra ufornuft mod fornuft, fra mørke mod lys - kort sagt, at de ændrede kønsroller, og frem for alt kvindernes indtog på arbejdsmarkedet, er et ubetinget historisk fremskridt. "	"Spørgsmål:\nMener kvindebevægelsen at kvindernes indtog på arbejdsmarkedet er et ubetinget historisk fremskridt?"	1	1	5148	1	30665	7905	25	5	5
P32	57	False	experiment	"Og den selvforståelse giver problemer: For hvordan kan det moderne familieliv med fuldtidsarbejde og børn, karriere og hus- og havearbejde kaldes et fremskridt, når det indimellem gør så ondt, at mange får lyst til at træde et par skridt tilbage i tidsmaskinen?"	"NO QUESTION"	NA	.	-1	-1	13980	7905	26	5	5
P32	58	False	experiment	"Hvis man kaster et blik i statistikkerne, er der en påfaldende samtidighed i stigningen af antallet af mennesker, der er ramt af alvorlige stress-sygdomme, antallet af skilsmisser og utilpassede børn – og så det forhold, at danskere gennemsnitligt bruger flere timer dagligt på løn- og husarbejde end for 20, 30, 50 år siden. Tid, der tidligere blev brugt på socialt samvær med familie, venner og naboer. Sådanne statistikker råber på en kulturkamp, som sætter menneskers hverdagsliv i centrum. For det er da paradoksalt, at økonomerne pukker på, at vi danskere skal arbejde mere for at få råd til velfærd, mens undersøgelse på undersøgelse viser, at flertallet af danskerne synes, at mere fri tid er det største velfærdsgode. Hører I det, derinde i regeringsforhandlingerne på Christiansborg."	"Spørgsmål:\nHenviser taleren til statistik, der viser at danskerne gennemsnitligt bruger mere tid på løn- og husarbejde end for 30 år siden?"	1	1	7206	1	45201	7905	27	5	5
P32	59	False	experiment	"Den nostalgiske længsel efter gammeldags familiemønstre afspejler også, at moderne mandlighed og kvindelighed ofte opleves som i strid 'naturens orden'. Den største erkendelse, jeg har fået gennem arbejdet med at skrive danmarkshistorie ud fra kvinders perspektiv, er, at naturen, dvs. kvinders og mænds biologi, altid er blevet brugt konservativt som argument mod kvinders frigørelse og ligestilling mellem kønnene."	"Spørgsmål:\nHar taleren skrevet om danmarkshistorie?"	1	1	4744	1	25106	7905	28	5	5
P32	60	False	experiment	"I dag er kønnet i langt mindre grad en spændetrøje end for 100 eller 50 år siden, men der florerer stadig mange myter om ægte kvindelighed og ægte mandlighed, som gør os til kopier af idealforestillinger, i stedet for originale personligheder. Og de myter skal vi i fællesskab blive ved med at punktere, så vi hver især får plads til at være og udfolde os, som vi er. Mathilde Fibiger indledte kampen på kvindernes vegne – og livet kan kun blive mere mangfoldigt og rigt ved at fortsætte på alles vegne. "	"Spørgsmål:\nMener taleren at køn stadig er en spændetrøje for nogen?"	1	1	9511	1	27996	7905	29	5	5
P32	61	False	experiment	"Vi kan kun undgå moderne heksejagte, racistiske og sexistiske hetzbølger, shitstorme og mobbeofre, ved at efterleve den frihedstanke i Grundloven, som berusede Mathilde Fibiger: Du kan tænke og tale og tro og leve som du vil – så længe du ikke sætter din nabos frihed på spil."	"NO QUESTION"	NA	.	-1	-1	15717	7905	30	5	5
P32	62	False	experiment	"Rigtig god skt. Hans aften til jer alle."	"NO QUESTION"	NA	.	-1	-1	3547	7905	31	5	5
P32	63	False	experiment	"NY TALE BEGYNDER NU"	"NO QUESTION"	NA	.	-1	-1	1495	7946	-1	4	4
P32	64	False	experiment	"Godaften, og tak fordi jeg må komme og holde årets båltale. Jeg har glædet mig til skulle stå her i aften og holde båltalen og dermed fejre midsommer eller Sankt Hans aften, som det jo også hedder, sammen med alle jer. Midsommer er en helt speciel tid for mig, den er faktisk lige så vigtigt for mig som julen. For hvor vi ved jul mødes i mørket om de små lys. Så mødes vi i aften i det lille mørke for sammen at fejre det helt store lys. Velvidende, at nu drejer årstidshjulet en tak. Nu står vi midt i sommeren, og vi går dermed ... ja, jeg er ked af at sige det ... men vi går faktisk mod mere mørke tider."	"NO QUESTION"	NA	.	-1	-1	40393	7946	0	4	4
P32	65	False	experiment	"Men lad os nu glemme det for en stund og i stedet glæde os over lyset. Og lad os glæde os så meget, at vi også her i aften tænder lys. Og hygger og er sammen. For når vi så vælger at gå ud af vore huse. Ud af vores carporte og stige ned fra vore cykler og ud af vore biler. For at stå her sammen. Er det vel egentlig også, fordi vi ønsker at dele denne begejstring for lyset med hinanden. For hver eneste af jer. Er der noget, der gør, at I ikke synes, det er nok bare at tænde et fyrfadslys og passe parcellen."	"NO QUESTION"	NA	.	-1	-1	37631	7946	1	4	4
P32	66	False	experiment	"Nej, både I børn og I voksne har søgt mod det her fælleskab. Og hvorfor gør vi egentlig det som moderne mennesker midt i en online tid? Jamen så er det vel fordi – og pardon my french – at det sgu ikke bare er noget middelalderligt pjat med hekse og helgener. Eller vikingetidens Frejakult. Så er det, fordi det giver mening. Så vil jeg gætte på, at I er kommet, fordi midsommerfælleskabet og det store bål på en eller anden måde siger noget for jer, ligesom det siger mig noget."	"NO QUESTION"	NA	.	-1	-1	31628	7946	2	4	4
P32	67	False	experiment	"At stå her i midsommernatten. Og være fælles. Om lyset. Om varmen. Om sundet og Kronborg. Om fællesskabet. Selv med svenskerne derovre på den anden side. Fælles om ilden. Om jorden og havet, der omgiver vores lille ø Sjælland. Om dyrene og hinanden. Fælles om fred og de elementer og mineraler, der forbinder os. Om kvantepartiklerne, som er inden i os og millioner af kilometer væk, og dog er forbundne. Om demokratiet, som vi netop igen for få uger siden har fejret, uanset om vi er tilfredse med udfaldet eller ej. Fælles om vor historie. Som vore forfædre har bygget til os. I form af murstene som slottet bagved mig. Hvor en konge ved navn Christian holdt sin kroningsfest. "	"Spørgsmål:\nBliver denne tale holdt på Frederiksborg Slot?"	2	2	7485	1	55808	7946	3	4	4
P32	68	False	experiment	"Og en flok engelske skuespillere optrådte og fortalte om derhjemme, som blandet med Saxos fortællinger om en dansk prins, et engelsk hævndrama om en spansk tragedie, og en vis forfatters søns og faders død blev til en af de største fortællinger om os nogensinde, ikke bare som danskere, men som mennesker, om hvad det er at være menneske, på trods af at forfatteren efter sigende aldrig selv befandt sig på denne kyst. Fælles er vi også om de fortællinger, der har skabt denne aften. Om Lysfester, der skulle holde ondskaben ude. Om trolde og hekse, dæmoner."	"NO QUESTION"	NA	.	-1	-1	33695	7946	4	4	4
P32	69	False	experiment	"Solhversfesten, der overtog Valborgsnatten. Hvor mænd og kvinder drak snaps til de segnede. Og de unger piger skulle vogte sig for Sankthansormen. For den kunne man nemlig blive gravid af. Fælles er vi også om den rensende ild, det rensende bål, som ifølge gammel skik optager alle vore indre hekse, dæmoner og trolde. Og som ved at dvæle blikket mildt og uden at fokusere, stimulerer melatoninen inde i vore hjerner. Gør os rolige, afslappede, fredfyldte."	"NO QUESTION"	NA	.	-1	-1	29772	7946	5	4	4
P32	70	False	experiment	"Fælles er vi i fortællingen. Om en mand 3426 km herfra, som ifølge en læge ved navn Lukas, fødtes på denne dag. 6 måneder før sin fætter, hvis ankomst han skulle forkynde. Manden ved navn Johannes råbte i ørkenen om det, der vil ske, de muligheder, der vil komme. Efter ham opkaldtes denne dag nogle århundreder senere: Johannes dag, Johannes den hellige, sanctus Johannes, eller på DANSK: Sankt Hans. Fælles er vi om denne historie. Om vi tror på den eller ej. Myterne flyder sammen med religioner og folkefortællinger. Og selvom få tror på dem i bogstavelig forstand, hvad enten det gælder hyldemor eller jomfrufødsler, hekse eller huldrer. Så tror vi på det, der ligger bag ordene."	"Spørgsmål:\nEr 'Johannes den hellige' et andet navn for 'Sankt Hans'?"	1	1	3676	1	51300	7946	6	4	4
P32	71	False	experiment	"Et ordsprog siger, at vi ikke fortæller børn historier om drager for, at de skal tro på dem, men for at de skal lære at slå dem ihjel. Eller tæmme dem. Det samme gælder ord. Og fortællinger. Da Johannes' fætter endelig trådte frem der ved floden og lod sig døbe svævede en due over ham, fint symboliserende ånde. Og det er måske netop ånd, der skaber fællesskabet. Forbindelsen mellem os. Den, der ligger bag ordene, traditionerne, festerne, højtiderne. Traditioner uden ånd er glædesløse. Derfor er denne tradition særlig smuk. For den forbinder det hele. Lyset. Fortællingerne. Myterne. Glæden. Og freden. Om det at året går sin gang. Og at vi har nogen indbyggede, traditionsbundne milepæle, der markerer dette."	"NO QUESTION"	NA	.	-1	-1	47633	7946	7	4	4
P32	72	False	experiment	"For det sjove er vel egentlig også, at i aften tænker vi ikke på alt det, der skete de foregående 12 måneder siden sidste sommer. Nej, vi træder nærmest ind i en magisk stund. Hvor i går og i forgårs er forsvundet. Og at vi tænker på sidste års bålaften. Vi ophæver den kontinuerlige, lineære måde at se verden på. Hvor vi midt i alle vores praktiske gøremål – måler tiden et stykke efter et andet. Alt dette bliver for en stund ophævet."	"NO QUESTION"	NA	.	-1	-1	26172	7946	8	4	4
P32	73	False	experiment	"Og vi træder ind i årshjulets cirkulære rytme. For vi giver pokker i januars måneds lommesmerter og februars tristesse. Marts måneds tunge regn. Og april måneds forårsbebudning. Netop i aften er vi bare. Og vi lader tankerne gå mod alle de andre midsommeraftner. Fuldt af skønheden og nybrud. Fuld af forventninger, og vi kan på en aften som i aften næsten høre mosekonen brygge. Og føle, hvordan hyldeblomsten beruser os."	"NO QUESTION"	NA	.	-1	-1	26666	7946	9	4	4
P32	74	False	experiment	"Og hvad er det så for noget, vi tænker på? I har sikkert hver især jeres egne traditioner, som I har været en del af, inden i kommet her. I mit barndomshjem var det sådan, at lige så meget som julen var en familiær begivenhed, så var midsommer der, hvor de mødtes med den udvidede familie. Altså alle de venner, vi børn, vi så komme tit og tæt i barndomshjemmet."	"NO QUESTION"	NA	.	-1	-1	25113	7946	10	4	4
P32	75	False	experiment	"Så var man nemlig sammen med den selvvalgte familie. Og der fejrede de voksne hele aftenen det fælleskab, de havde etableret med hinanden mens vi unger legede. Og glædede os helt sindssygt til, at vi skulle være længe oppe. Og vi skulle se bål ... for efter mad og leg, så var det dét, vi skulle, vi skulle se bål. Og vi var sammen om det. Og da jeg blev ældre, søgte jeg selv mod mine egne selvetablerede fællesskaber. Ligesom I har gjort. Og ve den, som sad alene på sankthansaften."	"NO QUESTION"	NA	.	-1	-1	26806	7946	11	4	4
P32	76	False	experiment	"Som halvkikset teenager bestod en af årets udfordringer altid i at sørge for, at man var med i en flok på nytårsaften og så på midsommeraften. Og netop de aftener er nogen af de aftener og nætter, der for den, der ikke har et fælleskab, kan virke som uendelige. At sidde der alene og tælle sekunderne. Velvidende, at man ikke har en at holde i hånden, når bålet tændes. Ikke en af se smile. Og glæde sig med. Og det er en aften, hvor vi i vore voksne fælleskaber ofte prøver at huske at tage dem, der står udenfor et fælleskab med."	"NO QUESTION"	NA	.	-1	-1	31667	7946	12	4	4
P32	77	False	experiment	"Vi inviterer lige naboen med ind – om ikke andet – så for en kort stund. For vi kan vel ikke glædes. Hvis vi ikke har nogen at glæde os sammen med. Vi kan ikke nyde flammerne fra bålet. Og de lyse nætter, hvis vi ikke kan føre en samtale. Nyde stilheden sammen med et andet menneske, der står os nært. For netop dermed bliver vi frie. Vi bliver frie for ensomhedens trange kår. Og oplever den frihed, det at give og modtage sommerens varme kærlige kys på kinden, er."	"NO QUESTION"	NA	.	-1	-1	25387	7946	13	4	4
P32	78	False	experiment	"Så vi skal tænde bålet. For I er kommet med jeres fælleskaber for sammen at nyde de store flammer. Og det skal I også komme til. Og det bål, vi tænder, er et samlingspunkt for fælleskabet. Det helt nære og det selvvalgte. For i aften fejrer vi de lyse nætter. Vi fejrer, at vi som de frie mennesker, vi er, er frisat gennem de venner og den familie, de fælleskaber, som er den ild, og den motor, der driver os. Så når vi om lidt tænder bålet. Så er spørgsmålet vel, om det, vi gør, ikke også er vi sætter blus på vores fælleskaber."	"NO QUESTION"	NA	.	-1	-1	28646	7946	14	4	4
P32	79	False	experiment	"Tak for ordet."	"NO QUESTION"	NA	.	-1	-1	2599	7946	15	4	4
P32	80	False	experiment	"NY TALE BEGYNDER NU"	"NO QUESTION"	NA	.	-1	-1	3517	18670	-1	4	4
