Session_Name_	Trial_Index_	Trial_Recycled_	condition	text	question	expected_key	QUESTION_KEY_PRESSED	QUESTION_RT	QUESTION_ACCURACY	SENTENCE_RT	speechid	paragraphid	counterbalance	LAST_COUNTERBALANCE
P35	1	False	practice	"NY TALE BEGYNDER NU"	"NO QUESTION"	NA	.	-1	-1	6089	1327	-1	0	0
P35	2	False	practice	"Hej alle sammen!"	"NO QUESTION"	NA	.	-1	-1	2690	1327	0	0	0
P35	3	False	practice	"Som I allerede ved, vil vi om lidt tænde for et bål, der vil brænde et skab af – det skab, vi har følt os begrænset af, indelukket i, og som de fleste af os er brudt ud af for at kunne blive lykkeligere."	"NO QUESTION"	NA	.	-1	-1	16019	1327	1	0	0
P35	4	False	practice	"'Men skabe er da ganske praktiske til opbevaring af mangt og meget, ikke sandt?' Jo, opbevaring af værdier, det er rigtigt – men når vi først begynder at sætte spørgsmålstegn ved disse værdier, så føles skabet mere og mere trangt, for det kan ikke rumme vores ideer og følelser mere."	"NO QUESTION"	NA	.	-1	-1	10890	1327	2	0	0
P35	5	False	practice	"'Jamen hvad er der i det skab?' Der er en opfattelse af at kvinder og mænd skal tænke, føle, klæde sig og handle forskelligt – fordi nogle er kvinder og andre er mænd. Kønsroller kalder vi det. Men det rækker faktisk meget længere end bare til roller, vi spiller – rollerne invaderer vores tanker og vores følelser, så vi næsten ikke kan tænke uden for rollen, så længe skabet omslutter os, og i hvert fald først og fremmest føler vi må tage hensyn til dem, der er i skabet..."	"Spørgsmål:\nMener taleren at kønsroller både påvirker hvordan vi handler og tænker?"	1	1	11882	1	21994	1327	3	0	0
P35	6	False	practice	"Når vi endelig bryder ud af skabet og for alvor viser og siger det, der ikke passer i det normative skab, kan vi godt opleve negative reaktioner – men så sandelig også positive – for vi er jo slet ikke alene!"	"NO QUESTION"	NA	.	-1	-1	10958	1327	4	0	0
P35	7	False	practice	"Der er nemlig andre som ligner os mere eller mindre, vi er en broget og mangfoldig flok i alle aldre, hudfarver, kulturelle baggrunde, med og uden handicap, med og uden tro, af forskellig politisk overbevisning, og – vigtigst for os her: af flere forskellige kønsidentiteter og seksuelle orienteringer."	"NO QUESTION"	NA	.	-1	-1	10957	1327	5	0	0
P35	8	False	practice	"Fælles for os er, at vi er en regnbueminoritet i forhold til flertallets skab – men det betyder ikke at majoriteten har ret. Vi vil udefra informere om, at der er andre måder at se tingene på, tilbyde et alternativt syn på livet og verden, som kan hjælpe nogle – især børn og unge – ud af et skab, de mistrives i."	"Spørgsmål:\nMener taleren at minoriteter bør tie med deres verdenssyn?"	2	2	6069	1	15156	1327	6	0	0
P35	9	False	practice	"Lad os brænde skabet med normerne, så vi frigøres fra dem og får retten til at være dem, vi faktisk er!"	"NO QUESTION"	NA	.	-1	-1	4531	1327	7	0	0
P35	10	False	experiment	"NY TALE BEGYNDER NU"	"NO QUESTION"	NA	.	-1	-1	964	1125	-1	10	10
P35	11	False	experiment	"Tak for invitationen til at komme og tale på denne dejlige og specielle aften.\nSkt. Hans aften er speciel - vi fejrer lyset med bål, sange og samvær. Vi samles på tværs af de ting, der ellers nok kan dele os op til hverdag. Vi synger vort fædrelands sange. Vi lytter til hinanden, taler med hinanden. Glæder os over de unge, som har gjort deres uddannelse færdige - de springer ud. Nogle er færdige med folkeskolen og skal videre efter sommerferien på en ungdomsuddannelse. Andre er blevet studenter eller svende. De har gjort, hvad vi forventer af dem: gjort sig dygtigere, læst, arbejdet med stoffet, fået indsigt og viden, dannet sig som mennesker i samspillet med deres undervisere og med hinanden. De er så klar!"	"NO QUESTION"	NA	.	-1	-1	26051	1125	0	10	10
P35	12	False	experiment	"Hvad er det så for et land, som de nu for alvor begynder at tage medansvar for? Hvad er det for et land, som vi står midt i? Det er et land, som er udfordret. Vi er udfordret. Og det gælder både økonomisk og i vores forståelse af, hvem vi er i forhold til vores omverden - også vores nære naboer."	"Spørgsmål:\nMener taleren at Danmarks økonomi er udfordret?"	1	1	7095	1	9712	1125	1	10	10
P35	13	False	experiment	"Økonomisk står vi i en situation, hvor opbygningen af gæld og kommende mangel på arbejdskraft nok er blevet mindre (på grund af aftalen om højere pensionsalder og afvikling af efterløn). Men vi stifter stadig gæld hver eneste dag. Mange af de unge, som netop har gjort deres uddannelse færdig, vil opleve, at de ikke kan finde et job. Det halter med at skabe jobs. Virksomhederne flytter deres produktion eller finder nye underleverandører i andre lande, hvor de også er dygtige og omkostningerne mindre. Udfordringen er med andre ord: Hvad skal vi leve af?"	"NO QUESTION"	NA	.	-1	-1	24619	1125	2	10	10
P35	14	False	experiment	"Der er mange tekniske svar på spørgsmålet om, hvad vi skal leve af. Men der er også et svar, der ikke handler om teknik. Det handler om mennesker. Om at vi som mennesker skaber forandringer gennem den måde, vi lever på."	"NO QUESTION"	NA	.	-1	-1	8814	1125	3	10	10
P35	15	False	experiment	"Danmark har været udfordret så mange gange før. Eksempelvis da prisen på korn faldt og smørret havde for dårlig kvalitet. Ingen havde alene råd - eller mælk nok for den sags skyld - til datidens nyeste teknologi: Centrifugen. I stedet for at den rigeste alligevel købte den og gjorde andre til sine underleverandører, fandt de på noget andet. De fandt på andelsbevægelsen. De lavede en forening, hvor hver mand havde sin stemme, og hvor man afregnede efter, hvor meget mælk man leverede. Alle havde lige indflydelse, men det kunne betale sig at levere mere."	"Spørgsmål:\nFik et medlem i andelsbevægelsen flere stemmer af at levere mere mælk?"	2	2	8528	1	28709	1125	4	10	10
P35	16	False	experiment	"De opfandt ikke centrifugen, men de opfandt en genial måde at organisere sig på, så de virkelig fik gavn af den nye teknologi. Det blev ikke kun til andelsmejerier. Det blev til brugsforeninger og slagterier, minkavl og vindmøllelaug. Det blev til et Danmark præget af bevægelser og foreninger. Nok med stærke formænd og -kvinder, men frem for alt med stærke medlemmer. Fordi det gør en forskel, når man er med til at bestemme."	"NO QUESTION"	NA	.	-1	-1	22005	1125	5	10	10
P35	17	False	experiment	"I 1882, da andelsmejeriet åbnede, havde vi haft demokrati i knap 30 år. Jeg tror, at grunden til at de fandt på det, var demokratiet. Det var jo sådan set demokrati, når der er gensidig respekt. Når hvert menneske tæller lige meget. Når man må sige, hvad man vil og synes at andre skal have og bruge samme rettighed."	"NO QUESTION"	NA	.	-1	-1	16828	1125	6	10	10
P35	18	False	experiment	"Det smør, der kom ud af andelsmejeriets centrifuge, var af god kvalitet. Så god kvalitet, at det kunne sælges uden for landet grænser. Og det har vi så i stort og småt levet af siden. Danmark er en lille, åben økonomi, og vi lever af, at andre vil købe vores varer. Og de varer er der mange af - fødevarer i alle afskygninger, vindmøller, spil og film, design og maskiner. Vi er blevet rige af at butikken har åben. Ikke af at den lukker. Hvem kan købe ind i en lukket butik? Danmark skal være et sted, hvor der er værd at komme - og som er værd at rejse ud fra for at få nye erfaringer, indsigter og ideer med hjem."	"NO QUESTION"	NA	.	-1	-1	33383	1125	7	10	10
P35	19	False	experiment	"Ligesom problemerne i vores moderne verden er grænseoverskridende, så er mulighederne det også. Og grænseoverskridende muligheder får vi mest ud af, hvis vi bruger dem sammen. Jeg ved godt, at det en meget lavtflyvende erfaring, men den er stadig rigtig: Sammen er vi stærke. Og styrken kommer ikke af at være ens, men af at kunne noget forskelligt, så vi kan meget mere sammen, end vi kunne hver for sig."	"NO QUESTION"	NA	.	-1	-1	16219	1125	8	10	10
P35	20	False	experiment	"Det er jo ingen kunst at sige, hvad man vil på en øde ø. Du kan råbe eder, forbandelser og håne lige så tosset du vil. Hvis ingen hører det, har det ingen konsekvenser. Du er bare alene med dit skrigeri. For at noget bliver en værdi - noget vi synes er vigtigt - så kræver det, at vi er flere - at vi laver et samfund. Du er ikke fri, hvis du er alene. Så er du bare alene. Først når du lever sammen med andre, kan du afprøve, om værdierne er noget, der bliver til virkelighed i hverdagen."	"Spørgsmål:\nKan man - ifølge taleren - være fri hvis man er alene?"	2	2	7377	1	19222	1125	9	10	10
P35	21	False	experiment	"Det er jo åbenlyst ikke noget ved ytringsfrihed, hvis der ikke er nogen, der lytter. Der er ikke noget ved friheden til at samle sig, hvis der ikke er nogle at samle sig med. Det er i samspillet med andre mennesker - og især i samspillet med dem, der har magten - at frihed kan blive til levende hverdag."	"NO QUESTION"	NA	.	-1	-1	10731	1125	10	10	10
P35	22	False	experiment	"For en uge siden var jeg også på Bornholm: til Folkemødet i Allinge. Der var taler, debatter, diskussioner, blev stillet spørgsmål og kommenteret. Der blev mumlet i krogene, hvisket ved siderne og grinet og leet. Der var jordbær på tilbud i Brugsen, en kajkant at sidde og spise dem på og mennesker at være sammen med. Det var en stor og god oplevelse - en demokratisk oplevelse: Ytringsfriheden blev brugt, forsamlingsfriheden, fraværet af censur - og den grundlæggende, gensidige respekt var til stede. Det har taget os mange, mange år at opbygge vores demokrati - det tog os over 60 år fra de første mænd fik stemmeret til kvinderne kom med."	"NO QUESTION"	NA	.	-1	-1	25139	1125	11	10	10
P35	23	False	experiment	"I går var jeg i Benghazi. I Libyens næststørste by, hvor det nationale overgangsråd har sæde - hvor Gadaffi har tabt, og oprørerne vundet. Udenrigsministeren havde sammensat en delegation af repræsentanter for hvert parti. Vi var dernede netop for at tale med de mennesker, som vil tage ansvar for overgangen til et nyt Libyen. Et demokratisk og frit Libyen."	"Spørgsmål:\nEr Benghazi Libyens største by?"	2	1	8025	0	18558	1125	12	10	10
P35	24	False	experiment	"Vi mødte hvad der svarede til os selv: Medlemmer af parlamentet. Vi stillede dem spørgsmål, og de svarede - åbent og nogle gange søgende og meget oplysende - på spørgsmål om, hvordan det skal være efter Gadaffi, om kvinders stilling og om de indefrosne midler, som de ikke har adgang til. Og de spurgte os: 'Vil I hjælpe os med at hjælpe de kvinder, som systematisk er blevet voldtaget af Gadaffis styrker? Hvad tænkte I, da I hørte om vores revolution?' Da Gadaffi havde tabt, var der ingenting. Intet. Alt har de skullet bygge op selv. Og det er de i gang med."	"NO QUESTION"	NA	.	-1	-1	24583	1125	13	10	10
P35	25	False	experiment	"Der var en, der spurgte dem, om det kan lade sig gøre: 'Kan Libyen blive frit og demokratisk?' Det var formanden Jalil, der svarede. Han sagde nogenlunde dette her: 'Da der var krig i Jugoslavien, kom Danmark med til EM på afbud. I var undervurderede, og det var jo sådan set ikke meningen, at I skulle med. Jeg heppede på jer. I spillede. Og vandt! Der kan ske uventede og utrolige ting,' sagde han og smilede. Der kan ske uventede og utrolige ting."	"NO QUESTION"	NA	.	-1	-1	18983	1125	14	10	10
P35	26	False	experiment	"I deres mediecenter holder de blandt andet en Facebook-side med internationale nyheder om Libyen ved lige. Finder de en historie på engelsk, så oversætter de den til arabisk, så langt, langt flere kan få adgang til den. Væggene var fyldt med karikaturtegninger af Gadaffi. 'Vi vidste ikke, at nogen kunne det,' sagde én af dem, der fulgte os rundt. 'Med vores revolution kom karikaturerne også.' Pludselig kunne man ytre sig."	"NO QUESTION"	NA	.	-1	-1	24359	1125	15	10	10
P35	27	False	experiment	"Jeg spurgte en ung pige, hvad hun lavede. Hun var i gang med at finde ud af, hvilke foreninger, der var dannet rundt omkring. Hun havde ikke vidst, hvad en forening var. For det var jo ikke tilladt - og der var 17 efterretningstjenester til at tjekke, at man ikke lavede foreninger. De er ligesom os. De ønsker sig frihed, demokrati, et sundhedsvæsen, der fungerer."	"NO QUESTION"	NA	.	-1	-1	15202	1125	16	10	10
P35	28	False	experiment	"Vi har og vi har haft vores kampe i Danmark. Det er deres kamp. Vi kan hjælpe og støtte, men det er deres kamp for det Libyen, som de gerne vil have. Jeg tror, at de vil vinde den, og at de langsomt, men sikkert, vil opbygge et demokrati. I deres land."	"NO QUESTION"	NA	.	-1	-1	14768	1125	17	10	10
P35	29	False	experiment	"Der er også mange, mange forskelle mellem borgerne i ørkenlandet, hvor der kun vokser noget dér, hvor der bliver vandet – og her, hvor der bliver 'vandet' hele tiden. Men i stedet for at remse forskellene op og bruge dem som byggesten i muren mellem dem og os – så kan vi se på det, som vi er fælles om: Menneskerettigheder fordi vi er mennesker og er født lige og frie."	"NO QUESTION"	NA	.	-1	-1	17325	1125	18	10	10
P35	30	False	experiment	"'Menneskerettigheder' – det lyder højstemt og abstrakt, selv for en tale ved Skt. Hans. Men det er hverdag. Det er den gensidige respekt. Friheden til at sige, hvad man mener. Friheden til at være sammen med dem, man vil. Retten til at leve sammen med ens familie."	"NO QUESTION"	NA	.	-1	-1	11153	1125	19	10	10
P35	31	False	experiment	"Så nok er Danmark udfordret. Men det har vi været før. Og det kan vi løse - hvis vi gør det sammen og med forskellene mellem os som styrken. Og når vi kan samles om bålet, kan vi også samles om de problemer, som vi kan løse i fællesskab. Der er ikke længe til valget, men i aften samles vi uden om de politiske skel for at fejre sommeren, lyset og samværet."	"NO QUESTION"	NA	.	-1	-1	12596	1125	20	10	10
P35	32	False	experiment	"Tak for ordet."	"NO QUESTION"	NA	.	-1	-1	1524	1125	21	10	10
P35	33	False	experiment	"NY TALE BEGYNDER NU"	"NO QUESTION"	NA	.	-1	-1	1560	1317	-1	10	10
P35	34	False	experiment	"Vi har to kriser: en økonomisk krise og en klima- og ressourcekrise. De skal løses sammen. Lige nu står vi på en brændende platform: Kina sidder på markedet for ressourcer som blandt andet sjældne mineraler og en lang række andre værdifulde og kritiske ressourcer, samtidig med at både ressourceknaphed og -forbrug stiger."	"NO QUESTION"	NA	.	-1	-1	16994	1317	0	10	10
P35	35	False	experiment	"EU's vision for 2020 er at 50 procent af husholdningsaffaldet genanvendes. Vores fælles vision for 2020 skal være endnu mere ambitiøs – og stile mod at deponering stort set ophører og genanvendelsen stiger markant. Regeringens 50 nye millioner til miljøteknologi på finansloven skal understøtte udviklingen. I skal bidrage med løsninger! Bedre ressourceforvaltning og affaldsforebyggelse er nogle af nøgleordene."	"NO QUESTION"	NA	.	-1	-1	19465	1317	1	10	10
P35	36	False	experiment	"Når affaldet genanvendes, skal det gerne blive til produkter af høj kvalitet, som forbrugerne vil købe. Vi skal med andre ord undgå downcycling og ikke forringe kvaliteten af materialerne. Målet er at recirkulere mange flere af de værdifulde ressourcer, der findes i affaldet."	"NO QUESTION"	NA	.	-1	-1	14639	1317	2	10	10
P35	37	False	experiment	"Som for eksempel når affald af Rockwool i Danmark kan blive indsamlet og genbrugt til ny Rockwool. På samme tid får man en billig råvare, der kan erstatte nye råvarer, og man er fri for at skulle deponere affaldet. Begge dele sparer kloden for udledning af en masse CO2."	"NO QUESTION"	NA	.	-1	-1	12363	1317	3	10	10
P35	38	False	experiment	"Det er ikke nok kun at overveje energiindholdet i affaldet – der findes mange andre værdifulde og udtømmelige ressourcer, som ikke bør gå til spilde. Eksempelvis metaller og sjældne jordarter som anvendes i mobiltelefoner og pc'er. Både europæiske og nationale initiativer er nødvendige for at øge ressourceeffektiviteten i Danmark og EU. Derfor bliver et af de vigtige punkter på dagsordenen for det danske formandskab også at arbejde med Ecodesign-direktivet. Det skal ikke bare begrænse produkternes energiforbrug, men også designe produkterne, så det er lettere at recirkulere ressourcerne."	"NO QUESTION"	NA	.	-1	-1	24744	1317	4	10	10
P35	39	False	experiment	"På EU-niveau ved vi, at: 3⁄4 af EU's påvirkning af miljøet stammer fra fødevarer og drikkevarer, privat transport og boliger. Langt det meste af produkternes miljøpåvirkning bestemmes i designfasen."	"NO QUESTION"	NA	.	-1	-1	102	1317	5	10	10
P35	40	False	experiment	"Hvordan kommer så vi videre? Et væsentligt skridt er Kommissionens 'Køreplan til et ressourceeffektivt Europa'. Det overordnede mål: et lavere træk på klodens ressourcer via mere og bedre genanvendelse. Jeg har valgt et par eksempler – der er mange at vælge imellem: Det første er flere offentlige grønne indkøb. Her spiller blandt andre kommunerne en rigtig stor rolle. Vi skal også have affaldshierarkiet mere tydeligt i spil, så det indgår klart i vores regulering på tværs af sektoren – for eksempel ved regler om produkter eller krav til bygge- og anlægsarbejder."	"NO QUESTION"	NA	.	-1	-1	27408	1317	6	10	10
P35	41	False	experiment	"Det tredje eksempel, som også flugter med det nye regeringsgrundlag, er ønsket om at skatter og afgifter flyttes fra arbejde til miljø og ressourcer. Det skal understøtte grønne jobs og sikre, at der er betaling for både ressourceforbrug og miljøbelastning."	"NO QUESTION"	NA	.	-1	-1	9512	1317	7	10	10
P35	42	False	experiment	"Et nyt 7. miljøhandlingsprogram i EU skal konkretisere køreplanen. Under overskriften 'Greening the economy' skal et langsigtet 10-årigt program bidrage til Europas grønne omstilling af økonomien. Det skal bygge videre på ressourceeffektivitets-dagsordenen, indsatsen for biodiversitet, vand, klima samt miljø og sundhed, som var hovedindsatsområderne i det 6. miljøhandlingsprogram. Bæredygtig forvaltning af ressourcer og affald er fortsat et område, der prioriteres højt på europæisk plan."	"NO QUESTION"	NA	.	-1	-1	26503	1317	8	10	10
P35	43	False	experiment	"Også på den hjemlige bane, er der politisk fokus på ressourcer. Den danske affaldsstrategi 2013-18 bliver en ressourcestrategi. Ressourcestrategien skal være vores nationale plan for, hvad der skal gøres. Den vil blive fulgt af en plan for, hvordan vi forebygger affald i 2014-19, som skal laves for første gang."	"NO QUESTION"	NA	.	-1	-1	11636	1317	9	10	10
P35	44	False	experiment	"Begge planer skal være klare og prioriterede: Hvad er vigtigst at nå for Danmark? Hvad er realistiske, men samtidig ambitiøse målsætninger? Hvilke midler skal vi have på plads for at nå målene? Det er spørgsmål, som jeg er sikker på, at branchen har nogle bud på. Jeg håber, I vil være med til at finde løsninger på tværs, der kan gavne både miljø, økonomi og konkurrenceevne. Ikke bare fordi det er bedst, men fordi det er den eneste løsning."	"NO QUESTION"	NA	.	-1	-1	12935	1317	10	10	10
P35	45	False	experiment	"Det allerbedste vil selvfølgelig være, hvis vi kan undgå at producere affald. Men hvordan gør vi det? Her tager jeg udgangspunkt i, hvad den enkelte kan gøre. Som forbrugere kan vi købe kvalitetsvarer, bruge tingene mere og længere og reparere dem i stedet for at smide dem ud. Vi kan også købe brugt, sælge, bytte eller forære vores ting væk. På den måde får de et længere liv, og flere får glæde af dem."	"NO QUESTION"	NA	.	-1	-1	17588	1317	11	10	10
P35	46	False	experiment	"Med hensyn til madspild burde det være endnu nemmere. Hvis alle forbrugere fulgte det enkle råd: 'Køb ikke mere mad, end du har brug for, og brug det mad, du har købt' – ja, så ville der ikke være så meget madspild i vores affaldssække. Jeg er glad for, at dette budskab er blevet udbredt af mange forskellige aktører i de seneste år. Af både miljømæssige, økonomiske og etiske årsager skal madspildet blive mindre."	"NO QUESTION"	NA	.	-1	-1	12714	1317	12	10	10
P35	47	False	experiment	"Ressourceeffektivitet i hele produktionskæden for fødevarer skal indgå i EU-arbejdet. Det er allerede nævnt i udkastet til køreplanen for ressourceeffektivitet, og det skal også med i det 7. miljøhandlingsprogram."	"NO QUESTION"	NA	.	-1	-1	6713	1317	13	10	10
P35	48	False	experiment	"I regeringen lægger vi stor vægt på at få skabt brede samarbejder på tværs af myndigheder, organisationer, virksomheder og private. På affaldsområdet har vi allerede et par gode eksempler, som viser, hvordan partnerskaber kan fremme teknologiudvikling."	"NO QUESTION"	NA	.	-1	-1	6000	1317	14	10	10
P35	49	False	experiment	"I arbejdet med den miljøteknologiske handlingsplan skal virksomheder og myndigheder sammen skabe de bedste rammer for en fokuseret teknologiudvikling. Myndighederne får samtidig input til en god og bæredygtig regulering."	"Spørgsmål:\nSkal virksomheder og myndigheder - ifølge taleren - arbejde sammen om teknologiudviklingen?"	1	1	9384	1	11881	1317	15	10	10
P35	50	False	experiment	"Det ene eksempel er et partnerskab, der handler om affald fra neddeling af skrot af biler og elektronik, kaldet shredderaffald. Det deponeres i dag. Men her er der både energi og værdifulde materialer som metal og plast at hente. Et andet eksempel er fosfor i spildevand og slam. Fosfor er en uundværlig plantegødning, som verden kommer til at mangle. Partnerskabet arbejder med at øge fosforudnyttelsen ved at fokusere på udvikling af teknologier og udformning af regler. Målet er, at værdifulde fosforressourcer ikke går tabt."	"NO QUESTION"	NA	.	-1	-1	21817	1317	16	10	10
P35	51	False	experiment	"Som I kan se i regeringsgrundlaget, ønsker vi også, at grønne afgifter og behandlingskrav skal være med til at sikre, at naturens ressourcer bruges mest skånsomt, samtidig med at økonomien kommer i bedring. Miljøforbedringer og økonomisk vækst er hinandens forudsætninger og ikke fjender."	"Spørgsmål:\nMener taleren at vi både kan opnå miljøforbedringer og økonomisk vækst?"	1	1	5432	1	8301	1317	17	10	10
P35	52	False	experiment	"Hvad kan vi så gøre helt konkret? Det er der mange gode bud på. De danske afgifter på deponering og forbrænding af affald har virket. De har været en vigtig del af succesen med at få reduceret de deponerede mængder helt ned til 6 procent af de samlede affaldsmængder. Men det kan blive endnu bedre. Den nye afgift på deponering af farligt affald har betydet, at affaldsproducenter og deponeringsanlæg nu gør sig store anstrengelser for at udnytte ressourcerne endnu bedre og reducere spildet. Det er altså et eksempel på, at afgifter kan være med til at stimulere en udvikling der sætter fokus på ressourcerne."	"NO QUESTION"	NA	.	-1	-1	22181	1317	18	10	10
P35	53	False	experiment	"En anden mulighed er at stille krav til behandlingen af konkrete typer af affald. Men det kan vi kun gøre, når vi har det fulde overblik over de miljømæssige effekter og samtidig kender de samfundsmæssige omkostninger."	"Spørgsmål:\nMener taleren at det - på tidspunktet for talen - er realistisk at stille krav til behandlingen af konkrete typer af affald?"	2	1	5103	0	6126	1317	19	10	10
P35	54	False	experiment	"Et eksempel er forskellige former for genanvendelse af gipsaffald. Miljøstyrelsen er i øjeblikket ved at afslutte de nødvendige livscyklusanalyser og samfundsøkonomiske vurderinger, der skal til, så politikerne får et solidt beslutningsgrundlag. Et andet eksempel er den dagrenovation, som vi brænder i dag. Der er potentiale i at sortere affaldet bedre, så mere af det kan genanvendes. Den organiske del af affaldet kan eksempelvis behandles på biogasanlæg, så energien bliver udnyttet, og plantenæringsstofferne kan udnyttes som gødning på markerne. På den måde kan vi undgå et stort spild af ressourcer og forbedre vores klimaregnskab samtidigt."	"Spørgsmål:\nMener taleren at det er en god ide at sortere dagrenovation bedre end det gøres på tidspunktet for talen?"	1	1	6648	1	24547	1317	20	10	10
P35	55	False	experiment	"Klimaudfordringen er til at tage og føle på. Vi skal lægge vores forbrugs- og produktionsmønstre radikalt om, så vi bruger mindre energi. Og teknologi skal forbedre den måde, energien produceres på."	"NO QUESTION"	NA	.	-1	-1	6073	1317	21	10	10
P35	56	False	experiment	"Affald bidrager til energiproduktion i dag sammen med bl.a. kul og naturgas, men det kræver nytænkning at omlægge energiproduktionen – også i affaldsbranchen. Det er ikke kun et spørgsmål om, hvor meget affald vi kan brænde. Det kan faktisk være en klimamæssig fordel at genanvende affaldet, også selvom det indeholder biomasse."	"NO QUESTION"	NA	.	-1	-1	8297	1317	22	10	10
P35	57	False	experiment	"Mange livscyklusvurderinger dokumenterer, at genanvendelse af glas, papir og metaller sparer CO2. Endelig peger undersøgelser på, at plast bliver en større og større del af vores affald."	"NO QUESTION"	NA	.	-1	-1	6109	1317	23	10	10
P35	58	False	experiment	"For at være åbne for nytænkning, er det vigtigt, at vi sørger for en intelligent tilpasning af forbrændingskapaciteten. Der er ingen, der kan være interesseret i en teknologisk lock-in i form af for mange dyre forbrændingsanlæg. Det vil forhindre innovationen i affaldsbehandlingen, alene fordi anlæggene står der og skal fyldes op med affald."	"NO QUESTION"	NA	.	-1	-1	10611	1317	24	10	10
P35	59	False	experiment	"Her til slut vil jeg gerne runde to meget vigtige emner: sammenhængen mellem affald og miljø, og affald og sundhed. I Danmark genanvender vi det meste bygge- og anlægsaffald. Men der er to store udfordringer, som er vigtige at gribe: Vi skal gøre mere for at undgå farlige stoffer som PCB i det affald, der genanvendes. Det drejer sig både om miljø og sundhed. Vi skal være bedre til at sørge for, at produkter, som genanvendes, har så høj en kvalitet, at bygherrerne efterspørger dem. Vi skal med andre ord arbejde for at mindske downcycling af bygge- og anlægsaffaldet."	"NO QUESTION"	NA	.	-1	-1	20812	1317	25	10	10
P35	60	False	experiment	"Nu har jeg været rundt om forskellige vinkler på affaldspolitikken. De vigtigste budskaber fra mig til jer er: Vi skal udnytte ressourcerne – der skal være ressourcer nok til alle på kloden. Vi skal passe på klimaet – genanvendelse af affald er typisk bedre end anden behandling. Vi skal beskytte miljø og sundhed – vi må ikke sprede farlige stoffer, når vi genanvender affaldet. Det vigtigste er altså at forebygge, at der overhovedet opstår affald, og at genanvende så meget som muligt af det affald, der opstår. Lad os i fællesskab bidrage til Danmarks løsninger på både den økonomiske og ressourcemæssige krise med visionen om at stile mod (næsten) fuld ressourceudnyttelse i 2020."	"NO QUESTION"	NA	.	-1	-1	24420	1317	26	10	10
P35	61	False	experiment	"NY TALE BEGYNDER NU"	"NO QUESTION"	NA	.	-1	-1	1191	1165	-1	9	9
P35	62	False	experiment	"Denne her tale er til alle jer derude, der ligesom mig, er ulykkelige og dybt forgældede. Det er Sankt Hans, om lidt skal vi brænde en heks af, forestil jer at det var jeres gæld der blev brændt af, eller jeres dårlige vaner og triste minder. Forestil jer at man én gang om året kunne tage en pose med rudekuverter og dårlige vaner med sig ned på sletten eller stranden eller hvor det nærmeste bål nu er, og kaste det i flammerne. Forestil jer at der var en anden verden, uden alle jeres problemer, som man kunne træde over i, vupti, så var alt det forfærdelige væk."	"Spørgsmål:\nFøler taleren ubehag ved rudekuverter?"	1	1	7169	1	17018	1165	0	9	9
P35	63	False	experiment	"Jeg har én episode, eller man kunne kalde det en periode i mit liv, jeg som det første ville se at komme af med. Da jeg var yngre løj jeg mig til at være læge. Det gør jeg ikke længere. Jeg havde en dum, dum oplevelse i mine tyvere hvor jeg mødte en sød pige og ikke blot løj mig ældre, men også til at være på niende semester. Det virkede. Jeg ville have hendes opmærksomhed og jeg fik den. Det var ligesom at spille kvartfinale til et EM i fodbold: hvis man er bagud til sidst, så ofrer man alt, uanset om det så koster et gult kort. Hvis det så til gengæld lykkes, og man havde et gult i forvejen, ja, så er man slet ikke med i næste kamp, hvilket jo kan føles ekstremt uretfærdigt."	"NO QUESTION"	NA	.	-1	-1	28575	1165	1	9	9
P35	64	False	experiment	"Sådan gik det for mig, for ikke nok med at jeg fik hendes opmærksomhed, jeg fik også en date og en mere og jeg fik aldrig helt fortalt hende at jeg slet ikke var læge, men på dagpenge. Og selvfølgelig skete det værste, der overhovedet kunne ske, på vores, ja måske var kun den femte date. Vi havde spadseret rundt om søerne, hånd i hånd, det hele føltes perfekt, jeg elskede hende virkelig højt og hun elskede mig, og vi gik mod Fælledparken hvor der skulle være det store sankthansbål og vi gik helt tæt sammen, imens vi nærmede os en lille flok mennesker der stod midt på stien."	"NO QUESTION"	NA	.	-1	-1	20699	1165	2	9	9
P35	65	False	experiment	"Vi skulle selvfølgelig møve os ind imellem dem, men det var ikke en tryllekunstner som jeg havde forventet. Der lå en ung mand i løbetøj på jorden og tog sig til hjertet imens han hev efter vejret. Jeg behøvede ikke at vente på at min kæreste skubbede mig frem til ham, jeg vidste hvad der ventede mig, og jeg vidste at jeg ikke ville miste hende. Det var ligesom at stå overfor et barn i en kanal: man tager ikke hjem og finder badebukserne frem først. Så jeg satte mig på hug ved manden og vendte ham om på ryggen."	"NO QUESTION"	NA	.	-1	-1	21952	1165	3	9	9
P35	66	False	experiment	"Jeg kunne høre min kæreste lyve for mig. 'Han er læge', sagde hun, selvom hun udmærket godt vidste at jeg kun gik på niende semester. Og jeg gav ham hjertemassage og tjekkede hans puls og jeg nikkede indforstået til ambulancefolkene da de ankom."	"NO QUESTION"	NA	.	-1	-1	8035	1165	4	9	9
P35	67	False	experiment	"Og min kæreste var så stolt, da vi gik derfra, arm i arm. Jeg var bare rystet og i chok, og jeg vidste, at nu var der ingen vej tilbage. Hvis jeg ville fortsætte forholdet, og fortsætte med at være lykkelig, måtte jeg forlade den ene verden og alt hvad den indeholdt af familie og venner, og kun leve i den verden hvor den mig, som hun havde forelsket sig i, levede. Og jeg vidste også at det var umuligt, at jeg jo ikke gik til forelæsninger på Panum, men i stedet gik på biblioteket for at læse tegneserier og aviser, når vi kyssede hinanden farvel om morgenen."	"NO QUESTION"	NA	.	-1	-1	21030	1165	5	9	9
P35	68	False	experiment	"Jeg bliver stadig utilpas når jeg tænker på ham løberen og jeg kan mærke hans brystkasse i mine hænder. Og jeg ville ønske at jeg kunne smide den følelse på bålet."	"NO QUESTION"	NA	.	-1	-1	6352	1165	6	9	9
P35	69	False	experiment	"Har I prøvet at cykle hurtigt imens I hører noget musik I virkelig godt kan lide? Man kan blive helt høj af det. Man kommer simpelthen et andet sted hen, hvor der ikke er nogen regninger eller dårlige minder der presser sig på. Og nu tænker I: 'shit, han er ude i noget nyreligiøst pjat', men hvorfor lukke ned bare fordi det lugter af overtro? Vi skal alle sammen sætte ild til et bål i aften hvor der står en heks på toppen. Hvis det ikke er en anden verden, så ved jeg ikke hvad det er."	"Spørgsmål:\nKan taleren forestille sig en bedre verden end sin egen virkelighed?"	1	1	6165	1	19363	1165	7	9	9
P35	70	False	experiment	"Det jeg bare prøver at sige er, at der findes mange forskellige verdener og at vi selv vælger hvilken vi vil leve i. Jeg valgte engang at være læge og måtte tage konsekvenserne. I har valgt at leve i en verden hvor I kun er lykkelige hvis I er gældfri og slanke og har gode jobs. Og I tager konsekvenserne hver dag i form af sorg, ulykke og ondt i maven. Jeg kunne have fået pigen, hvis jeg var læge. Men det er jeg ikke. Jeg kunne måske have fået hende alligevel, hvis jeg havde været ærlig og sagt at jeg ikke havde noget job. Vi kunne måske alle sammen være lykkelige, hvis vi var rige og gældfri. Men det er vi ikke. "	"NO QUESTION"	NA	.	-1	-1	19085	1165	8	9	9
P35	71	False	experiment	"Vi sidder i gæld til halsen med klimakriser og finanskriser og inkompetente politikere og voksne der vil være børn og store, væmmelige firmaer, der ejer vores kroppe og sjæle. Den verden, vi prøver at bilde os selv ind at vi lever i, eksisterer ikke, og kommer heller aldrig til det. Jeg bliver aldrig læge. Jeg ved ikke engang hvor pigen er i dag. Vi bliver aldrig gældfrie og perfekte, og vi ved ikke engang hvordan det ville være."	"NO QUESTION"	NA	.	-1	-1	16090	1165	9	9	9
P35	72	False	experiment	"Faktisk er det ikke helt sandt, det jeg siger nu. Jeg har været tæt på at være gældfri i 2007. I samme periode var jeg også tæt på at bryde mig om mit udseende og lige ved at kunne lide mit arbejde. Det var ikke lige så chokerende som mødet med løberen i Fælledparken, men det var tæt på. Det var forfærdeligt. Det var jo slet ikke mig! Jeg kunne ikke kende mig selv. Men heldigvis gik der kun et par måneder, så var jeg tilbage på det nedadgående spor igen."	"NO QUESTION"	NA	.	-1	-1	12726	1165	10	9	9
P35	73	False	experiment	"Det er Sankt Hans. Dagene bliver kortere og nætterne bliver mørkere. Og det er ikke jeres regninger I skal smide på bålet, hvis I vil have det bedre. Det er jeres forestillinger om hvad der sker, når de ikke findes længere, som I skal af med. Og når I kommer af med dem, så kan I begynde at leve sammen med os andre i den verden vi også lever i."	"Spørgsmål:\nMener taleren at det vil hjælpe på ens velbefindende at brænde sine regninger?"	1	2	5636	0	9211	1165	11	9	9
P35	74	False	experiment	"Løberen døde. I er i live. Det er skattereformen også. Og hvis I synes det er noget snavs, så husk at der er en stor demonstration imod de blårøde og deres uhæderlige verdener i dag klokken 16 foran Finansministeriet. Og nej, vi futter ikke Bjarne Corydon af. Der er simpelthen ikke skaft nok mellem benene på ham til at vi kunne få ham til at sidde fast på bålet."	"NO QUESTION"	NA	.	-1	-1	23855	1165	12	9	9
P35	75	False	experiment	"God demo og god sommer."	"NO QUESTION"	NA	.	-1	-1	2112	1165	13	9	9
P35	76	False	experiment	"NY TALE BEGYNDER NU"	"NO QUESTION"	NA	.	-1	-1	1227	1318	-1	9	9
P35	77	False	experiment	"Det var en spand med grå, døde hummere på Gilleleje Havn, som endelig fik offentligheden til at indse, at landbruget ikke bare kunne gøde og sprøjte, så meget de ville. TV Avisens indslag i 1986 betød et vendepunkt i dansk miljøpolitik."	"NO QUESTION"	NA	.	-1	-1	14901	1318	0	9	9
P35	78	False	experiment	"Manglende ålegræs og døde hummere er ikke ligefrem noget at være stolte af. Til gengæld kan vi godt være lidt stolte af det, der skete i årene efter TV Avisens indslag. Der blev nemlig taget fat: Danmark fik sin første vandmiljøplan, og vi blev foregangsland på vandmiljøområdet. Der blev også sat gang i naturgenopretning og skovrejsning. Initiativer, der gav danskerne mange gevinster, blandt andet også bedre vandmiljø."	"NO QUESTION"	NA	.	-1	-1	14874	1318	1	9	9
P35	79	False	experiment	"Men hvis vi nu kun kigger 5 eller 10 år tilbage, så er der måske ikke så meget at bryste sig af mere. Vores vandmiljø har det stadig ikke godt nok, vores indsats er langsom og halvhjertet, og vi er for længst blevet overhalet af EU og vandrammedirektivet."	"Spørgsmål:\nMener taleren at det danske vandmiljø har det godt nok?"	2	2	3644	1	15834	1318	2	9	9
P35	80	False	experiment	"EU's vandrammedirektiv er faktisk inspireret af den tidlige danske vandmiljøindsats. Så det er lidt ironisk, at vi har haft så svært ved at følge op på EU's regler under den tidligere regering. Det kan vi gøre bedre, og det vil jeg gerne tage min del af ansvaret for: Vi skal stramme op. Vi skal ikke bare leve op til EU's regler. Vi skal også igen blive førende."	"NO QUESTION"	NA	.	-1	-1	10820	1318	3	9	9
P35	81	False	experiment	"Men hvad er der sket siden 1986? Hvad er behovet nu og her? Og hvordan får vi sammen Danmark tilbage i førersædet? Det vil jeg give mit bedste bud på de næste 10-15 minutter."	"NO QUESTION"	NA	.	-1	-1	7323	1318	4	9	9
P35	82	False	experiment	"Når vi gør status over miljøtilstanden, ser det heldigvis ikke helt sort ud alt sammen. Der er sket forbedringer. Udledning af næringsstoffer er blevet væsentligt reduceret. I de sidste par år har vi haft færre områder med iltsvind, og på steder, hvor der tidligere var iltsvind, er der de seneste år kommet flere bunddyr, og der er begyndende tegn på forbedringer også for ålegræsset."	"NO QUESTION"	NA	.	-1	-1	20886	1318	5	9	9
P35	83	False	experiment	"Men at tegnene på forbedring har været – og stadigvæk er – så langsomme om at slå igennem, viser netop, at vi har været i en situation, hvor vi har belastet miljøet så hårdt, at det er utroligt svært at vende tilbage til udgangspunktet. Økosystemernes robusthed er blevet nedbrudt, og balancerne er blevet forskudt."	"NO QUESTION"	NA	.	-1	-1	10014	1318	6	9	9
P35	84	False	experiment	"Det tager rigtig lang tid at få bygget naturens systemer op igen. Vi kan ikke bare lade stå til. Vi kan heller ikke klare os med hurtige løsninger. Vi skal blive ved og ved og tænke store sammenhænge og langsigtet. Det kræver en kæmpe indsats, et godt samarbejde, en bred forståelse for hinandens problemer, en god dialog og en innovativ udvikling af ny teknologi."	"NO QUESTION"	NA	.	-1	-1	12065	1318	7	9	9
P35	85	False	experiment	"Hvis vi for et kort øjeblik ser tilbage, fik vi allerede i 1981 de første varsler på, at der var noget galt i de danske farvande, hvor vi oplevede omfattende fiskedød og iltsvind flere steder. I 1985 kom der så en handlingsplan for kvælstof, fosfor og organisk stof. Men det var først med de døde hummere i Kattegat i 1986, at der for alvor blev sat gang i debatten om vores vandmiljø, og det blev til ikke mindre end tre vandmiljøplaner i årene 1987-2004."	"NO QUESTION"	NA	.	-1	-1	15945	1318	8	9	9
P35	86	False	experiment	"Vandmiljøplan I og II rummede en bred indsats over for rigtig mange kilder: landbrug, industri, by-spildevand, dambrug og havbrug. Nu skete der noget. Der blev etableret rensningsanlæg ved byerne, store vådområder dukkede op i det danske landskab, og der blev påbegyndt en regulering af landbrugets udledninger. Og den regulering gælder stadig og den virker."	"NO QUESTION"	NA	.	-1	-1	10512	1318	9	9	9
P35	87	False	experiment	"Vandmiljøplan III fra 2004 fokuserede på en endnu bredere indsats for at nedbringe landbrugets påvirkning af vandmiljøet. De to første vandmiljøplaner er blevet gennemført og fik god effekt, men vandmiljøplan III fik aldrig den effekt, der var tilsigtet, og der er sket en kraftig neddrosling af indsatsen for vandmiljøet siden da."	"NO QUESTION"	NA	.	-1	-1	9721	1318	10	9	9
P35	88	False	experiment	"Hvor står vi nu? Nu har udledningen fra industrien fået en fornuftig regulering, by-spildevandet bliver renset, og forureningen fra landbruget er reduceret væsentligt. Landbrugets forurening er dog stadig meget markant, når vi snakker om vandmiljø, og det er vores helt store udfordring. Det er den udfordring vi særligt skal tage fat om i de kommende vandplaner. Og der skal gøres en fornyet indsats for at få gennemført spildevandshåndtering i spredt bebyggelse."	"Spørgsmål:\nMener taleren at udledningen fra industrien er fornuftigt reguleret?"	1	2	4075	0	12001	1318	11	9	9
P35	89	False	experiment	"Hvad vil vi gerne have? Vi skal have en sammenhængende indsats i forhold til Danmarks vandmiljø med vandløb, søer, vådområder, fjorde, hav og grundvand. Vandet skal flyde rent og naturligt igennem enge, vådområder, skove og et velfungerende bæredygtigt landbrugsland og ende i rene fjorde og kystvande. Vi skal have nogle sammenhængende og naturlige økosystemer, med naturlige processer og naturlig dynamik, hvor vi får genoprettet balancer og robusthed i systemerne. Her skal være plads til vandets naturlige bevægelse og fluktuationer og plads til vandmiljøets sammenhæng og samspil med de tilgrænsende arealer."	"Spørgsmål:\nMener taleren at havmiljøet er være en del af den sammenhængende indsats for Danmarks vandmiljø?"	1	1	3694	1	16502	1318	12	9	9
P35	90	False	experiment	"Derfor er jeg også rigtig glad for at kunne sige, at der over de næste to år er afsat yderligere 159 millioner kroner til at etablere flere store vådområder. Disse vådområder – søer og våde enge – skal være med til at sikre, at Danmark får et bedre miljø, reducere kvælstofkoncentrationen og give en rigere natur. Samtidig kan de være med til at opsamle regn under skybrud og give gode friluftsoplevelser. Vådområder er et rigtig godt middel til at løse flere ting på engang. Det er sådan nogle virkemidler, vi skal have fat i. Vi skal i det hele taget bruge vores hoveder og finde mange flere virkemidler. Randzoner, ådale og nye skove er rigtig gode virkemidler, som jeg glæder mig til at sætte mit præg på."	"NO QUESTION"	NA	.	-1	-1	17747	1318	13	9	9
P35	91	False	experiment	"Men hvad vil regeringen gøre? Her må jeg dele det op i tre dele, nemlig: her og nu, om et øjeblik – og lige straks. Her og nu må vi få vedtaget vandplanerne i en fart. Om et øjeblik – eller to – går vi i gang med at arbejde imod en fuld gennemførelse af EU's Vandrammedirektiv og Natura 2000-direktiverne, og i 2012 skal Havstrategidirektivets basisanalyse og miljømål være på plads. Og lige straks går vi i gang med det visionære: en mere overordnet grøn omstilling af Danmark."	"NO QUESTION"	NA	.	-1	-1	18720	1318	14	9	9
P35	92	False	experiment	"Jeg vil tage til Bruxelles og drøfte forventningerne til den fremadrettede indsats med miljøkommissæren. EU-formandskabet er også vigtigt, når det drejer sig om at gøre landbrugspolitikken og tilskudsordningerne 'grønnere'. Fødevareministeren og jeg vil presse på for at få tilskudsordninger, der på bedste vis kan hjælpe os til at nå visionære mål for vandmiljø og natur."	"NO QUESTION"	NA	.	-1	-1	9042	1318	15	9	9
P35	93	False	experiment	"Jeg sidder jo nu som ny minister og er nødt til at sende nogle vandplaner ud, som jeg ikke selv har lavet. Tro mig, de ville have set noget anderledes ud, hvis jeg havde været minister i de år, de er blevet til i. Skulle jeg så stoppe dem? Nej, for vi er allerede stærkt forsinkede."	"NO QUESTION"	NA	.	-1	-1	11631	1318	16	9	9
P35	94	False	experiment	"Nu er det vigtigt, at de kommer ud, og at vi kommer i gang med at gennemføre den indsats, der trods alt er i udkastene til planerne. Og det er en stor miljøsejr, at de vandplaner overhovedet kommer i gang. Med de kommende generationer af vandplaner og de nye havstrategier skal vi nok anstrenge os for at komme videre, så vi kan nå miljømålene. Vi må og skal leve op til kravene i EU's direktiver. Men det skal selvfølgelig gøres på den bedste måde og uden at lukke hverken landbruget eller industrien i Danmark."	"NO QUESTION"	NA	.	-1	-1	11164	1318	17	9	9
P35	95	False	experiment	"Vi nedsætter derfor en uafhængig natur- og landbrugskommission, som effektivt skal tage fat på løsningen af landbrugserhvervets miljømæssige udfordringer. Ikke mindst i forhold til natur- og vandmiljøindsatsen. Men også klimaindsatsen kommer til at indgå i kommissionens arbejde."	"NO QUESTION"	NA	.	-1	-1	7480	1318	18	9	9
P35	96	False	experiment	"Regeringen vil på den baggrund fremlægge en køreplan for fuld gennemførelse af EU's vandrammedirektiv og Natura 2000-direktiverne, så Danmark kommer tættere på en rettidig gennemførelse af vand- og naturplanerne. Det er også nødvendigt, hvis Danmark skal kunne bidrage til at gennemføre den europæiske vand- og naturlovgivning i hele EU. Ikke mindst under Danmarks EU-formandskab. Og det er i høj grad intentionen: Når Danmark sidder i formandsstolen, vil vi kæmpe for at få en grøn omstilling af EU højt på dagsordenen."	"NO QUESTION"	NA	.	-1	-1	12972	1318	19	9	9
P35	97	False	experiment	"Men hvordan kan man overhovedet tale om at tage et større hensyn til miljøet, når verden står midt i en økonomisk krise? Her siger vi i regeringen, at det er netop det, vi skal tale om. For vi har i virkeligheden to kriser: en økonomisk krise og en klima- og miljøkrise. Vores klode kan ikke klare presset på ressourcer og på klimaet, hvis vi bliver ved med at forbruge og forurene i det tempo, vi ser nu. Derfor er det tydeligt for mig og resten af regeringen, at de to kriser skal løses sammen. Og miljøet er nøglen til at løse flere af de økonomiske problemer, vi står med lige nu. Det er jeg overbevist om. Hvis vi får skabt en bæredygtig vækst, der udnytter ressourcerne bedre og udvikler ny miljøteknologi, kan vi både hjælpe miljøet og økonomien."	"NO QUESTION"	NA	.	-1	-1	21846	1318	20	9	9
P35	98	False	experiment	"Regeringen ønsker at få Danmark tilbage i front, når det kommer til bæredygtige løsninger, både i industrien, i landbruget og i byerne. Danmark skal være et grønt demonstrationsland. Her skal nye teknologier udvikles og afprøves, så de bliver efterspurgt globalt. Det skal for eksempel være her, den nyeste biogasteknologi udvikles. Det er ikke alene godt for klimaet, når landbruget laver gas i stedet for gyllespredning."	"NO QUESTION"	NA	.	-1	-1	9000	1318	21	9	9
P35	99	False	experiment	"Det kan også give god økonomi og nye eksportmuligheder. Der er masser af muligheder i grøn omstilling. Men det kræver en nytænkning og en dedikeret tilgang til projekterne. Vi vil også fortsat sikre mere natur og skov. Den grønne omstilling handler i høj grad også om at give naturen mere plads for også at styrke vores velfærd. Det kræver også, at rammerne tillader det og motiverer det."	"NO QUESTION"	NA	.	-1	-1	9794	1318	22	9	9
P35	100	False	experiment	"Derfor vil jeg gå i dialog med jer, med landbruget, med industrien og med andre, der har fingeren i jorden, for at finde frem til en miljøregulering, der lige præcis peger i den rigtige retning uden at lægge hindringer i vejen for en grøn omstilling. Jeg kan med glæde konstatere, at dambrugsområdet nu får en intelligent regulering til gavn for miljø, teknologiproducenter og erhverv. Her opnås en reduktion af organisk materiale til vores vandløb og søer samtidig med at produktionen øges og erhvervet styrkes."	"NO QUESTION"	NA	.	-1	-1	18021	1318	23	9	9
P35	101	False	experiment	"Det er bare et eksempel på en vej at gå, for vi kan ikke bare betale os til flotte løsninger – og slet ikke nu, hvor statskassen praktisk talt er tom. Vi skal bruge vores hoveder, og 100.000 hoveder tænker bedre end et. Derfor skal både landbrug, miljøorganisationer, embedsmænd, forskere, virksomheder og finansfolk lægge hovederne i blød og dele deres tanker og ideer med hinanden."	"NO QUESTION"	NA	.	-1	-1	12693	1318	24	9	9
P35	102	False	experiment	"Langsigtede visioner, fri kreativitet, nye veje og samarbejde på tværs skal være i højsædet. Og visioner skal ikke bare være noget, vi snakker om ved festlige lejligheder. De skal føre til handling. Senere på ugen håber jeg at kunne præsentere de nye vand- og naturplaner. Der sker noget nu, og det vil jeg glæde mig over på vandmiljøets og naturens vegne. Og jeg vil efterfølgende lytte til jeres ideer til, hvad vi skal lægge vægt på, når vi forbereder næste runde af vandplaner. "	"NO QUESTION"	NA	.	-1	-1	13332	1318	25	9	9
P35	103	False	experiment	"Min egen personlige vision som minister handler derfor om at føre en bred dialog og udvikle et godt samarbejde. Netop derfor vil jeg sige til alle interesseorganisationerne, at nu har I en regering, der lytter til gode forslag og ideer. Så læg dem endelig på bordet, så vi kan få et konstruktivt samarbejde – både om de næste generationer af vandplaner og om alt det andet lige fra døde, grå hummere til sprællevende bævere og bisoner."	"NO QUESTION"	NA	.	-1	-1	13498	1318	26	9	9
