Session_Name_	Trial_Index_	Trial_Recycled_	condition	text	question	expected_key	QUESTION_KEY_PRESSED	QUESTION_RT	QUESTION_ACCURACY	SENTENCE_RT	speechid	paragraphid	counterbalance	LAST_COUNTERBALANCE
P37	1	False	practice	"NY TALE BEGYNDER NU"	"NO QUESTION"	NA	.	-1	-1	3082	1327	-1	0	0
P37	2	False	practice	"Hej alle sammen!"	"NO QUESTION"	NA	.	-1	-1	1141	1327	0	0	0
P37	3	False	practice	"Som I allerede ved, vil vi om lidt tænde for et bål, der vil brænde et skab af – det skab, vi har følt os begrænset af, indelukket i, og som de fleste af os er brudt ud af for at kunne blive lykkeligere."	"NO QUESTION"	NA	.	-1	-1	14411	1327	1	0	0
P37	4	False	practice	"'Men skabe er da ganske praktiske til opbevaring af mangt og meget, ikke sandt?' Jo, opbevaring af værdier, det er rigtigt – men når vi først begynder at sætte spørgsmålstegn ved disse værdier, så føles skabet mere og mere trangt, for det kan ikke rumme vores ideer og følelser mere."	"NO QUESTION"	NA	.	-1	-1	20196	1327	2	0	0
P37	5	False	practice	"'Jamen hvad er der i det skab?' Der er en opfattelse af at kvinder og mænd skal tænke, føle, klæde sig og handle forskelligt – fordi nogle er kvinder og andre er mænd. Kønsroller kalder vi det. Men det rækker faktisk meget længere end bare til roller, vi spiller – rollerne invaderer vores tanker og vores følelser, så vi næsten ikke kan tænke uden for rollen, så længe skabet omslutter os, og i hvert fald først og fremmest føler vi må tage hensyn til dem, der er i skabet..."	"Spørgsmål:\nMener taleren at kønsroller både påvirker hvordan vi handler og tænker?"	1	1	5059	1	29386	1327	3	0	0
P37	6	False	practice	"Når vi endelig bryder ud af skabet og for alvor viser og siger det, der ikke passer i det normative skab, kan vi godt opleve negative reaktioner – men så sandelig også positive – for vi er jo slet ikke alene!"	"NO QUESTION"	NA	.	-1	-1	11534	1327	4	0	0
P37	7	False	practice	"Der er nemlig andre som ligner os mere eller mindre, vi er en broget og mangfoldig flok i alle aldre, hudfarver, kulturelle baggrunde, med og uden handicap, med og uden tro, af forskellig politisk overbevisning, og – vigtigst for os her: af flere forskellige kønsidentiteter og seksuelle orienteringer."	"NO QUESTION"	NA	.	-1	-1	16258	1327	5	0	0
P37	8	False	practice	"Fælles for os er, at vi er en regnbueminoritet i forhold til flertallets skab – men det betyder ikke at majoriteten har ret. Vi vil udefra informere om, at der er andre måder at se tingene på, tilbyde et alternativt syn på livet og verden, som kan hjælpe nogle – især børn og unge – ud af et skab, de mistrives i."	"Spørgsmål:\nMener taleren at minoriteter bør tie med deres verdenssyn?"	2	2	3869	1	19308	1327	6	0	0
P37	9	False	practice	"Lad os brænde skabet med normerne, så vi frigøres fra dem og får retten til at være dem, vi faktisk er!"	"NO QUESTION"	NA	.	-1	-1	8440	1327	7	0	0
P37	10	False	experiment	"NY TALE BEGYNDER NU"	"NO QUESTION"	NA	.	-1	-1	2730	26682	-1	1	1
P37	11	False	experiment	"Kære studenter\nEt stort tillykke med jeres eksamen. I sidder nu her, som så mange før jer har gjort. I har med hårdt slid taget jeres studentereksamen, proppet jeres hoveder med viden og nu fortjener I at blive fejret. Nogle af jer ser måske også lidt trætte ud, men det skyldes måske ikke kun det hårde, faglige arbejde."	"NO QUESTION"	NA	.	-1	-1	13660	26682	0	1	1
P37	12	False	experiment	"I har været igennem 12-13 års skolegang hvor det meste har været lagt til rette for jer. Nu skal I til at bruge jeres viden, i første omgang til at vælge hvilken retning jeres tilværelse skal tage. For de fleste af jer er det nok første gang nogensinde, at der ikke er et oplagt valg for hvad I skal efter sommerferien."	"NO QUESTION"	NA	.	-1	-1	13350	26682	1	1	1
P37	13	False	experiment	"I bliver presset af ungdomsarbejdsløshed og Folketinget presser jer med fx SU-reform til at gå hurtigt i gang med videregående studier. Jeg håber, I føler, at vi har klædt jer godt på i løbet af jeres tre år på VK, så I har den viden og de kompetencer, der kræves for at træffe en god beslutning for jeres videre færd."	"NO QUESTION"	NA	.	-1	-1	14649	26682	2	1	1
P37	14	False	experiment	"Men viden - hvad er det egentlig, hvad vil det sige at vide noget og kunne noget her i 2013? Jeres bedsteforældres generation skulle lære kongerækken udenad, remser med Europas floder og byer, ja sågar salmevers. Jeg ved ikke hvor stærke I er i kongerækken – I er næppe blevet hørt i det, men for jer er viden noget andet. I lærer mindre udenad og det skyldes nok først og fremmest, at I er meget bevidste om, hvor let I har ved at slå faktuel viden op. Man kan let føle, at man ved alt, hvad internettet ved. Bare man har en smartphone, iPad eller computer, så kan man slå det op."	"NO QUESTION"	NA	.	-1	-1	29952	26682	3	1	1
P37	15	False	experiment	"De fleste af jer kender den situation, at læreren har stillet et spørgsmål. I selv eller en af kammeraterne har hurtigt googlet det og har fundet svaret, rakt hånden op og har svaret korrekt på lærerens spørgsmål. Man kan betragte den situation på flere måder: Snød I læreren? eller snød I jer selv? Eller var det i virkeligheden en rigtig fornuftig måde at løse opgaven på? "	"NO QUESTION"	NA	.	-1	-1	14480	26682	4	1	1
P37	16	False	experiment	"Professor i psykologi ved Harvard University Daniel M. Wegner har skrevet en artikel med titlen 'Don’t fear the cybermind'. Hans siger altså, at vi ikke skal frygte det han kalder Cybermind. Han anbefaler, at vi accepterer internettet som en hukommelsesudvidelse og forstår, at grænsen mellem vores egen bevidsthed og internettet bliver mere og mere flydende."	"NO QUESTION"	NA	.	-1	-1	16432	26682	5	1	1
P37	17	False	experiment	"I virkeligheden er den måde at arbejde på karakteristisk for mennesket også uafhængigt af internettet. Vi mennesker lever sammen i grupper og netværk, hvor vi støtter hinanden med vores forskellige kompetencer eksempelvis vores forskellige viden. Nogen af jer kender måske den situation hjemmefra, at hvis man skal vide noget om familiens fødselsdage så går man til et familiemedlem, skal man vide noget om bilen så er det et andet familiemedlem man går til. Der er ikke én person i gruppen som ved det hele, men tilsammen ved de rigtig meget.  "	"NO QUESTION"	NA	.	-1	-1	19786	26682	6	1	1
P37	18	False	experiment	"På den måde er internettet blot en teknisk udvidelse af den måde at samarbejde og videndele på. Vi er alle blevet en del af et stort cybermind. Så længe vi er forbundet til vores maskiner gennem snak og tastetryk, kan vi alle være en del af det største og smarteste sind nogensinde. Det er kun, når vi er fanget i et øjeblik uden vores net-forbindelse, at vi vender tilbage til vores egen beskedne hukommelse. Og det sker efterhånden sjældnere og sjældnere."	"NO QUESTION"	NA	.	-1	-1	17998	26682	7	1	1
P37	19	False	experiment	"I har lige som den første årgang været igennem en eksamensperiode med adgang til internettet, men dog med en masse restriktioner og begrænsninger: krav om at I ikke måtte kommunikere og dermed heller ikke søge på internettet og så mister internettet jo en stor del af sin værdi. Men man arbejder i øjeblikket på at justere eksamensformerne, så gad vide om ikke man om få år kan benytte internettets muligheder fuldt ud – også til eksamen."	"NO QUESTION"	NA	.	-1	-1	15975	26682	8	1	1
P37	20	False	experiment	"Internettet har eksisteret i hele jeres levetid. De sociale medier såsom Facebook og YouTube har eksisteret siden I var 10-12 år gamle. Det gør jer i den grad til superbrugere og det giver jer en masse muligheder og fordele, men der er et par faldgruber som I bør være opmærksomme på:"	"NO QUESTION"	NA	.	-1	-1	10813	26682	9	1	1
P37	21	False	experiment	"Plagiat. Det er blevet meget let - man finder et eller andet tilsyneladende brugbart på internettet, kopierer og indsætter. Umiddelbart er det positivt. Andres viden bliver brugt og kommer til at indgå som viden hos endnu flere. Det foregår også professionelt, der dukker jævnligt sager op om litterært plagiat eller forskningsmæssigt plagiat."	"NO QUESTION"	NA	.	-1	-1	12854	26682	10	1	1
P37	22	False	experiment	"'Der er mange mennesker, der kommer til et livsresultat ligesom skoledrenge; de snyder ved at skrive facit ud af regnebogen uden selv at have regnet stykket'. Den sætning er plagiat fra min side. Det er ikke mig, der har formuleret det. Æren tilskrives den danske filosof Søren Kierkegaard. Det er i orden at benytte noget som andre har formuleret, når bare man ærligt siger, hvor man har det fra. Kierkegaard påstår her, at mange mennesker finder en vej igennem livet uden selv at have lavet mellemregningerne og dermed uden at have en dybere forståelse."	"NO QUESTION"	NA	.	-1	-1	24292	26682	11	1	1
P37	23	False	experiment	"Jeg vil i forlængelse heraf kommentere en anden mulig faldgrube ved at vende tilbage til noget af det jeg sagde tidligere: hvad var det som jeres bedsteforældre fik ud af at lære så meget udenad? De fik opbygget nogle tankestrukturer som gjorde dem i stand til at forstå, analysere og fortolke diverse input. Hvis de stødte på et årstal, vidste de med det samme en hel masse om samfundet på det pågældende tidspunkt ud fra en viden om hvilken konge som regerede. "	"NO QUESTION"	NA	.	-1	-1	17015	26682	12	1	1
P37	24	False	experiment	"Det er vigtigt for jer, at I fortsat opbygger en base af viden for selvom det er blevet lettere at slå faktuel viden op på internettet, så er det nødvendigt, at I har et skelet at hænge den viden op på. Så hvis I besvarer lærerens spørgsmål ved at slå svaret op på Google, så er det i orden, hvis I selv forstår svaret og kan forholde jer til det, men hvis I blot videregiver det som papegøjer, så fungerer det ikke, og I snyder jer selv. Det gælder ikke kun i gymnasiet og i skoleverdenen, men også i det samfund I skal ud i bagefter."	"NO QUESTION"	NA	.	-1	-1	23515	26682	13	1	1
P37	25	False	experiment	"Jeg citerede for lidt siden Kierkegaard og da det i år er 200 år siden hans fødsel vil jeg dvæle lidt ved ham. Hvad husker vi Kierkegaard for i dag, hvad kan vi bruge ham til? Kierkegaard var optaget af individet. Han opfordrer individet til at træde i karakter blive synlig. Menneske er ikke noget man er, men noget man bliver igennem de valg man træffer."	"NO QUESTION"	NA	.	-1	-1	14408	26682	14	1	1
P37	26	False	experiment	"Kierkegaard har fyldt meget i medierne her i 2013. Eksempelvis har Kulturredaktør på Berlingske Jesper Beinov skrevet følgende: 'Kierkegaards arv handler, for mig at se, om, at det frie valg er det moderne menneskes vilkår samtidig med at man er forpligtet på næsten. Ingen tvinger os i dag til bestemte livsvalg. Vi kan vælge at overtage det nedarvede, det overleverede, eller vi kan vælge at forkaste det. Så længe vi ikke skader andre, men lidenskabeligt og oprigtigt vælger og vedstår os vores valg, er der ingen som anfægter vores ret til dette'"	"Spørgsmål:\nMener taleren at Kierkegaard stadig er aktuel i medierne?"	1	1	4116	1	26865	26682	15	1	1
P37	27	False	experiment	"I står overfor at skulle træffe valg for jeres liv og der er et utal af muligheder: I kan fortsætte med at studere til august, og hvis I gør det, har I alle mange forskellige studier at vælge imellem. Eller I kan holde et eller flere sabbatår for at tjene penge, eller for at tage på højskole, tage ud at rejse. Der er virkelig mange muligheder. Nogle af jer vil nok også opleve, at man ikke altid kan gå den korteste og mest lige vej. Man ved aldrig hvilke muligheder og forhindringer, der dukker op. "	"NO QUESTION"	NA	.	-1	-1	19481	26682	16	1	1
P37	28	False	experiment	"Folketinget presser jer til at gå hurtigt i gang. For nogle af jer vil det være det rigtige valg – for andre kan det være bedre med en pause. Der findes ikke en facitliste med rigtige valg eller forkerte valg. Men jeg tror på værdien af at tage de valg man træffer alvorligt. Hvis ikke man har en plan, så har man ikke noget at afvige fra. Så risikerer man at flyde med strømmen som en korkprop i en bæk."	"Spørgsmål:\nMener taleren at det er positivt hvis studenterne flyder med strømmen?"	2	2	3461	1	15075	26682	17	1	1
P37	29	False	experiment	"Nu har jeg talt om individets frie valg. Frihed er en helt central værdi for os danskere, men en anden lige så vigtig værdi er individualismens modstykke: fællesskab. Og hermed vil jeg forlade Kierkegaard, for når det drejer sig om fællesskab er det ikke Kierkegaard, man skal lytte til."	"NO QUESTION"	NA	.	-1	-1	11784	26682	18	1	1
P37	30	False	experiment	"Jeg har ved samtaler med mange af jer fornemmet hvor meget fællesskabet betyder for jer, både fællesskabet i klassen, på årgangen og på tværs af årgangene – VK-fællesskabet. I har ikke alle haft lige gode vilkår for at deltage i fællesskabet – her tænker jeg specielt på ITX-klassen. "	"NO QUESTION"	NA	.	-1	-1	13110	26682	19	1	1
P37	31	False	experiment	"Vi dimitterer i år den første ITX-klasse. I har dels haft nogle HTX-fag fra Mercantec og nogle STX-fag fra VK og så har i idrætten til fælles. I har været i den helt særlige situation, at I to dage om ugen har været på Mercantec og tre dage om ugen her på VK. Det har selvfølgelig nogle gange gjort det vanskeligt for jer at føle tilhørsforhold både til den ene og den anden skole. Men i dag dimitterer jeg jer herfra og understreger hermed, at I er og altid vil være en del af VK’s årgang 2013."	"NO QUESTION"	NA	.	-1	-1	18680	26682	20	1	1
P37	32	False	experiment	"Og til hele årgangen vil jeg sige, at I har bidraget. Nogle mest i arbejdet på klassen, og andre i det store fællesskab. Det er helt afgørende for at få den nødvendige sammenhængskraft på skolen. Også for samfundet er det vigtigt, at det består af borgere, der er bevidste om deres pligter og moralske ansvar. Den danske filosof og læge \nKlemens Kappel har sagt:"	"NO QUESTION"	NA	.	-1	-1	14788	26682	21	1	1
P37	33	False	experiment	"Vi er villige til at handle moralsk (også når det ikke umiddelbart gavner os selv), men kun så længe vi kan konstatere, at andre også gør det. Hvis man ser, at andre ikke yder deres til et moralsk projekt, så mister man selv sin motivation til at yde sit."	"NO QUESTION"	NA	.	-1	-1	10633	26682	22	1	1
P37	34	False	experiment	"For at bevare et samfund, som vi alle ønsker at leve i, er den enkelte således nødt til at handle moralsk og yde sit til fællesskabet, ellers falder fællesskabet fra hinanden og sammenhængskraften forsvinder. Det gælder både i det nære og det lidt fjernere. Så lad være med at snyde i skat og tilran jer ikke fordele, I ikke er berettiget til. Gør ikke på jeres arbejdsplads kun det, I skal. Gør også det, der er nødvendigt og engagér jer."	"Spørgsmål:\nOpfordrer taleren tilhørerne til at handle mere egennyttigt?"	2	2	6681	1	19429	26682	23	1	1
P37	35	False	experiment	"I har som enkeltindivider og som årgang formået at engagere jer. fx via Senatet, med musicalen Tusindårsfornemmelser, Dansk Røde Kors indsamling, Novus, Radio WadUp, morgensamlinger, café, Minerva etc. På den måde har I bidraget positivt til fællesskabet her på skolen. Fællesskaberne begynder med familie og venner, går via arbejdspladsen og lokalsamfundet til hele Danmark for til sidst at ende med hele verden. Hvis synsvinklen kun er ens egen snævre, får vi en verden, som de fleste vil have det dårligt i. Det er dog vigtigt at begynde med det nære. Magter man ikke det, kan man heller ikke frelse verden."	"Spørgsmål:\nHar skolens elever opført Tusindårsfornemmelser?"	1	2	9696	0	24997	26682	24	1	1
P37	36	False	experiment	"Jeg har givet jer nogle gode råd: Først det ret konkrete at udnytte de fordele som jeres generation har, for brug af det som Daniel M. Wegner kalder cybermind.\nMen gør det kritisk og med høj moral. Det er fint at benytte internettets muligheder til netværksdannelse og videndeling, men I skal sørge for konstant at udvide jeres eget skelet af viden, ellers risikerer I, at det bliver plagiat og papegøjesnak."	"NO QUESTION"	NA	.	-1	-1	16734	26682	25	1	1
P37	37	False	experiment	"Stå ved de valg I træffer, men ikke på en dumstædig måde. Forudsætninger kan ændre sig og man kan i nogle tilfælde være nødt til at træffe nye valg. Tænk i fællesskaber og engagér jer."	"NO QUESTION"	NA	.	-1	-1	7148	26682	26	1	1
P37	38	False	experiment	"Den engelske forfatter Oscar Wilde sagde: 'Det eneste man kan gøre med gode råd, er at give dem videre. Selv har man aldrig nytte af dem'. Jeg har valgt at give jer nogle stykker. Jeg håber, I vil tage det positivt. Det er et udtryk for oprigtig interesse fra min side. Jeg vil ønske jer alt mulig held og lykke på jeres fremtidige færd og sige til jer, at I altid er velkomne på Viborg Katedralskole."	"NO QUESTION"	NA	.	-1	-1	14898	26682	27	1	1
P37	39	False	experiment	"Med disse ord dimitterer jeg jer som studenter fra VK 2013."	"NO QUESTION"	NA	.	-1	-1	2068	26682	28	1	1
P37	40	False	experiment	"NY TALE BEGYNDER NU"	"NO QUESTION"	NA	.	-1	-1	2153	22811	-1	1	1
P37	41	False	experiment	"Fru minister, kære allesammen\nTusinde tak for, at I er mødt op i dag for at markere den internationale dag mod homo-, bi- og transfobi! Over hele kloden markeres dagen med tusindvis af arrangementer, som skal sætte fokus på de udfordringer, vi møder som en af de minoriteter i verden, som udsættes for mest forfølgelse og uretfærdighed."	"NO QUESTION"	NA	.	-1	-1	14635	22811	0	1	1
P37	42	False	experiment	"Det er en dag, som maner til sammenhold – sammenhold inden for hele gruppen af LGBTQI osv. Og til sammenhold, uanset hvilken geografisk, etnisk eller religiøs gruppe vi tilhører. Hvis LGBTQI-personer udgjorde en nation, ville vi være klodens tredje mest folkerige. Nu forholder det sig imidlertid sådan, at vi lever spredt over hele kloden – under vidt forskellige forudsætninger for at stå frem, kæmpe og frigøre os fra undertrykkelse. "	"NO QUESTION"	NA	.	-1	-1	20564	22811	1	1	1
P37	43	False	experiment	"Som vores demonstration her i dag meget grafisk illustrerer, så er der endnu 80 lande på jorden, hvor det at leve med en seksualitet eller kønsidentitet, som afviger fra flertallets, er strafbart – fra bøder til dødsstraf."	"NO QUESTION"	NA	.	-1	-1	7614	22811	2	1	1
P37	44	False	experiment	"Det er også derfor, vi står her i dag – for at huske på alle dem, som ikke ville kunne gøre tilsvarende i deres lande – af frygt for alvorlige repressalier – for at give dem stemme – for at huske på dem og for at lægge pres på vore politikere, så de tager LGBTQI-rettigheder op HVER gang, der er lejlighed til at gøre det – og uanset overfor hvem."	"Spørgsmål:\nEr det i alle lande risikofrit at tale højt om LGBTQI-rettigheder?"	2	2	7385	1	14321	22811	3	1	1
P37	45	False	experiment	"Vi skal ikke vige tilbage for at tale uretten midt imod. Og vi skal ikke relativere rettigheder. Om man er født i Kampala, Kathmandu, Cayenne eller København – så har man lige megen ret til at elske og leve i overensstemmelse med sig selv."	"NO QUESTION"	NA	.	-1	-1	9880	22811	4	1	1
P37	46	False	experiment	"Vi skal også bruge dagen til at minde os om, hvad vores eget sammenhold betyder – som LGBTQI-personer i Danmark 2016. Til at minde os om, at hvis vi ikke kæmper for alles ret i hele LGBTQI-familien – så taber vi også kollektivt kampen."	"NO QUESTION"	NA	.	-1	-1	9222	22811	5	1	1
P37	47	False	experiment	"I de sidste måneder har vi som organisationer – bl.a. de 4 organisationer, som står bag dagens demonstration – Sabaah, LGBT Danmark, Amnesty International og Copenhagen Pride – sammen med stærke transaktivister kæmpet den vigtige kamp for, at transpersoner i Danmark – og internationalt – fjernes fra listen over psykiske sygdomme. Alt tyder nu på, at denne kamp bærer frugt, og at det er lykkedes os at overbevise politikerne om, at Danmark skal gå forrest i verden på dette spørgsmål, og at det som i 1981, da det handlede om at fjernet homoseksuelle fra samme liste, betaler sig at vise verden vejen frem for at vente på WHO. "	"NO QUESTION"	NA	.	-1	-1	22347	22811	6	1	1
P37	48	False	experiment	"Det er vi glade for at have været med til at få til at lykkes – og det er lykkedes, fordi vi har stået bag hinanden og bakket hverandres kamp op. Sådan er vi stærke – for åben dialog og enighed i mål gør stærk."	"NO QUESTION"	NA	.	-1	-1	8207	22811	7	1	1
P37	49	False	experiment	"Kampen er ikke slut – nu skal vi bevare presset på den politiske proces, så transpersoner omsider får retten til egen krop og til at kunne bestemme over egen behandling – vi ønsker, at der indføres informeret samtykke i sundhedssystemet for transpersoner – ligesom for ALLE ANDRE DANSKERE, og vi ønsker, at der ændres i Sundhedsstyrelsens vejledning, så Sexologisk kliniks monopol brydes, og der igen indføres mulighed for, at transpersoner kan gå til en privatpraktiserende læge eller gynækolog for at få udskrevet de hormoner, de har brug for. "	"NO QUESTION"	NA	.	-1	-1	20792	22811	8	1	1
P37	50	False	experiment	"Transpersoner skal sættes fri – som selvstændige, myndige aktører i egne liv. Væk med umyndiggørelsen og formynderiet – det er uværdigt – det er umenneskeligt. Vi kan ikke finde os i det!!"	"NO QUESTION"	NA	.	-1	-1	6943	22811	9	1	1
P37	51	False	experiment	"Og det kan lade sig gøre. Hvis der er EN ting, der står tilbage fra sidste uges IDAHOT-forum i København, så er det den maltesiske minister for borgerrettigheder, sociale anliggender og forbrugerspørgsmål, Helena Dallis, svar på spørgsmålet: 'Hvad skal der til for at skabe forandring?'"	"NO QUESTION"	NA	.	-1	-1	10286	22811	10	1	1
P37	52	False	experiment	"Det skal lige siges, at den maltesiske regering på 3 år har ændret 85 forskellige lovkomplekser for at gøre dem mere homo-, bi-, trans- og intersex-inkluderende, hvilket har ført til, at det stærkt katolske Malta nu iflg. ILGA er langt det førende land i verden, når det gælder sikring af vore borgerrettigheder. Da de indledte arbejdet, var 80 % af befolkningen imod bedre rettigheder for LGBTQI-personer – nu, 3 år senere, er 80 % af befolkningen for."	"NO QUESTION"	NA	.	-1	-1	15639	22811	11	1	1
P37	53	False	experiment	"På spørgsmålet: 'Hvad skal der til for at skabe forandring?', svarede Helena Dalli: 'Two words: Political will!' Så let er det. Der skal vilje til – og mod! Politisk mod til ikke at lave politik efter meningsmålinger, men i forhold til, hvad man anser for at være rigtigt og retfærdigt, tilføjede hun."	"NO QUESTION"	NA	.	-1	-1	10745	22811	12	1	1
P37	54	False	experiment	"Så lad en opfordring til danske politikere lyde her fra Rådhuspladsen i dag: Gå forrest! Lad os skabe en revolution i fællesskab, hvor de sidste rester af LGBTQI-diskrimination endegyldigt fjernes fra dansk lovgivning. Sæt et arbejde i gang som det maltesiske, hvor lovgivningen systematisk granskes for uretfærdigheder, og lad disse blive fjernet – og nedsæt et råd af civilsamfundsorganisationer fra LGBTQI-miljøet til at rådgive jer om, hvordan man skaber ægte inkluderende lovgivning."	"Spørgsmål:\nMener taleren at LGBTQI-personer pt. diskrimineres af den danske lovgivning?"	1	2	5033	0	18403	22811	13	1	1
P37	55	False	experiment	"Vi husker, hvem der er med os, og hvem der går imod! Som Martin Luther King Jr. engang sagde: 'In the end, we remember not the words of our enemies, but the silence of our friends.'"	"NO QUESTION"	NA	.	-1	-1	7560	22811	14	1	1
P37	56	False	experiment	"Under sidste uges konference opfordrede de forsamlede politikere civilsamfundsorganisationerne til at være deres vagthunde – til at gøre dem opmærksomme på uretfærdigheder og til at være deres kritikere, når tingene ikke bevæger sig hurtigt nok frem. Det vil vi gerne – tak for invitationen. Men det forudsætter to afgørende ting:"	"Spørgsmål:\nOpfordrede politikerne i sidste uge civilsamfundsorganisationerne til at være deres vagthunde?"	1	1	4937	1	14519	22811	15	1	1
P37	57	False	experiment	"Den ene er, at I politikere sikrer, at vi har fornuftige forhold at arbejde under. I kan ikke på den ene side pålægge os det kollektive ansvar for på samfundets vegne at løfte denne opgave, og så samtidig ikke ville lægge midler til dette arbejde. Vi tre store organisationer, som står som arrangører her i dag, kan ikke i fællesskab mønstre én fuldtidsmedarbejder. "	"NO QUESTION"	NA	.	-1	-1	16665	22811	16	1	1
P37	58	False	experiment	"Alle er vi 100 % frivilligt drevet – og vi knokler for at skabe de resultater og den viden, I efterspørger. Men hvis I vil flytte det her område, som I siger, og hvis I vil basere jer på viden og fakta – så kræver det, at vi kan levere det – og det forudsætter altså, at man sætter midler af til indsamling af disse fakta."	"NO QUESTION"	NA	.	-1	-1	12939	22811	17	1	1
P37	59	False	experiment	"Vi KAN ikke gøre det selv!!"	"NO QUESTION"	NA	.	-1	-1	2022	22811	18	1	1
P37	60	False	experiment	"Det andet er, at I skal lytte, når vi taler med jer. Hør på og anerkend, hvilke problematikker og udfordringer vi lægger frem for jer – og stol på, at vi nok har ret, når vi påpeger dem. Undlad at negligere eller bagatellisere ting, der ikke influerer jer selv personligt."	"NO QUESTION"	NA	.	-1	-1	12672	22811	19	1	1
P37	61	False	experiment	"Tag som udgangspunkt, at vi ved, hvad vi taler om, og at når vi kommer med en problematik – så er det en, som bør løses – gennem politisk vilje og med politisk mod. Det er budskabet fra i dag! Støt os! Lyt til os! Brug os! Sammen kan vi skabe en bedre verden for LGBTQI-personer overalt. Og en sådan verden er en bedre verden for hele menneskeheden!"	"NO QUESTION"	NA	.	-1	-1	12195	22811	20	1	1
P37	62	False	experiment	"Tak for ordet, og tak til jer alle, fordi I kom i dag."	"NO QUESTION"	NA	.	-1	-1	2734	22811	21	1	1
P37	63	False	experiment	"NY TALE BEGYNDER NU"	"NO QUESTION"	NA	.	-1	-1	1340	18670	-1	4	4
P37	64	False	experiment	"Tak fordi jeg måtte komme. Og tak fordi I ville komme!\nAlle jer, der er til stede her i dag, har brugt tid og kræfter på at udvikle nye, bæredygtige løsninger. I har brugt jeres viden, fantasi og gode ideer til at tænke nyt og på tværs. Alt sammen med det formål at skabe en grønnere og mere bæredygtig verden. Det værdsætter jeg rigtig meget."	"NO QUESTION"	NA	.	-1	-1	14761	18670	0	4	4
P37	65	False	experiment	"Vi har brug for jeres indsats. FN har defineret 17 verdensmål, der skal sætte kurs mod en mere bæredygtig udvikling – både for mennesker, og for den planet, vi bor på. En af de udfordringer, der optager mig og hele regeringen rigtig meget, det er klimaforandringerne. Og hvis vi et øjeblik forestiller os, at vi om 80 år mødes igen her på RUC – eller, at vores børnebørn og oldebørn mødes – så synes jeg, vi skylder dem at komme op med løsninger, som gør, at vi ikke behøver svømme rundt her på campus. Så vi ikke behøver ankomme her til COconference i gummibåd. Ligesom vi skylder vores børn og børnebørn, at de stadig kan gå en tur i en frodig skov. Glæde sig over lærken, der synger og drikkevand direkte fra hanen."	"NO QUESTION"	NA	.	-1	-1	33086	18670	1	4	4
P37	66	False	experiment	"Det er folk som jer, der har været med til at bestemme, at det seneste folketingsvalg blev så grønt. Og jeg er glad, stolt og en lille smule ydmyg over at være en del af en regering, der tager det ansvar på os. Vi har sat os et mål om at nedbringe Danmarks udledning af CO2 med 70 procent i 2030. Det er en ambition, selv Uffe Elbæk ville kalde 'crazy'. Og sandheden er, at vi endnu ikke ved, hvordan vi når derhen."	"Spørgsmål:\nMener taleren at vælgerne har været med til at bringe klimabevidsthed på dagsordenen?"	1	2	11167	0	18206	18670	2	4	4
P37	67	False	experiment	"En ting er sikker; vi har brug for forskningen, hvis vi skal finde de bæredygtige løsninger. Derfor blev jeg for to uger siden enig med alle Folketingets partier om at sætte 1,5 mia. kr. af til forskning i grønne løsninger. Med aftalen sætter vi nogle overskrifter på de områder, hvor vi mener, at ny grøn forskning kan gøre gavn. Det gælder inden for landbrug, tung transport og byggeri. Og det gælder inden for arkitektur, design, natur og biodiversitet."	"NO QUESTION"	NA	.	-1	-1	18295	18670	3	4	4
P37	68	False	experiment	"Og fordi vi endnu ikke ved, hvordan vi når målet, så har vi brug for forskning, som er helt fri – og drevet af forskernes egne ideer. Men vi har også brug for forskning, der udvikles i tæt samarbejde med virksomhederne og kan give svar på nogle af de konkrete udfordringer, vi står med her og nu. Med aftalen om forskningsreserven sætter vi en ny grøn retning for udviklingen af Danmark. Men penge til forskning gør det ikke alene. Vi har brug for offensive hjerner som jeres til at bringe forskningen i spil. Og vi har brug for alle de vilde, konkrete, usandsynlige, fantastiske og inspirerende ideer, I kan komme op med."	"Spørgsmål:\nEr der - ifølge taleren - brug for fri forskning?"	1	2	6285	0	26636	18670	4	4	4
P37	69	False	experiment	"Det gode er jo, at når man – som jer – arbejder sammen på tværs af professioner, sektorer og fag, så kommer man til at se verden med nye briller. Og det er ofte lige der – i krydsfeltet mellem forskelligheder – at de gode ideer opstår. Derfor er COchallenge et fantastisk initiativ. Her deltager både gymnasieelever, bygningskonstruktører, datamatikere, multimediedesignere, forskere, virksomheder og mange flere med hver deres faglighed og syn på verden. Det kan ikke undgå at give nye og skæve perspektiver på bæredygtigheden. Perspektiver, som vi ellers ikke kunne have forudset."	"NO QUESTION"	NA	.	-1	-1	21940	18670	5	4	4
P37	70	False	experiment	"Tag bare vinderne af ARGOs COchallenge sidste år; 'Skraldepigerne', som de blev kaldt. 'Skraldepigerne' var 4 studerende fra Zealand, der gik sammen om at gøre det sjovt og attraktivt at genbruge de ting, vi andre smider ud. Ingen af de fire studerende kendte hinanden i forvejen. De kom fra tre forskellige studieretninger med tre forskellige fagligheder."	"NO QUESTION"	NA	.	-1	-1	12879	18670	6	4	4
P37	71	False	experiment	"Alligevel lykkedes det Rikke, Nadia, Christina og Melisa at komme op med en løsning, ingen havde tænkt på før. Ideen var at afholde skraldefester på genbrugspladsen. For et lille entrébeløb kan man få adgang til genbrugspladsen og komme og tage, hvad man har lyst til, mens man samtidig får inspiration fra designere og håndværkere til at upcycle skraldet."	"NO QUESTION"	NA	.	-1	-1	12775	18670	7	4	4
P37	72	False	experiment	"Jeg går selv ind for genbrug. Jeg blev faktisk gift i genbrug. Ikke at min mand var genbrug, men brudekjolen var. Det forbrug, vi mennesker har af tøj, er af så enorme dimensioner, at tøjindustrien er den næstmest forurenende industri i verden. Det tøj, vi ikke når at købe, bliver nogle gange brændt. Enorme bål med dyre sko, tasker og designertøj går op i røg og ender som aske. Det er næsten ikke til at bære."	"NO QUESTION"	NA	.	-1	-1	18225	18670	8	4	4
P37	73	False	experiment	"Vi har kun én jordklode. Men globalt forbruger vi, som om der var 1,7 jordkloder. Det kan ikke blive ved med at gå. Derfor har vi brug for studerende som Rikke, Nadia. Christina og Melisa, der kan vende tingene på hovedet og tænke nyt. Og vi har brug for initiativer som COchallenge, der inspirerer os til, hvad vi kan gøre – både sammen og hver især - for at blive mere miljøbevidste i dagligdagen."	"Spørgsmål:\nForbruger mennesker - ifølge taleren - 3,7 gange jordens ressourcer?"	2	2	3350	1	13704	18670	9	4	4
P37	74	False	experiment	"850 studerende har deltaget i forløbet her. Jeg synes, I er seje. I viser vejen. I er 'blæredygtige', som arrangørerne af konferencen kalder jer med et sjovt, nyt ord. Det samme gælder de 450 virksomheder og offentlige organisationer, der deltager. Jeg synes, det viser noget om, at der er en bevægelse i gang, som er svær at stoppe. Og samtidig er vi jo en del af en global bevægelse, hvor virksomheder, kommuner, byer og ngo'er verden over har kastet sig ind i kampen for mere bæredygtighed."	"NO QUESTION"	NA	.	-1	-1	18094	18670	10	4	4
P37	75	False	experiment	"Så når I spørger jer selv, om jeres lokale initiativer nytter, så er svaret ja. For nuvel, der kan være langt fra et initiativ som skraldefester på genbrugspladsen til abstrakte verdensmål. Men hvert lille initiativ og hver lille opfindelse udgør brændstof til den bevægelse, der kan skabe forandring."	"NO QUESTION"	NA	.	-1	-1	11576	18670	11	4	4
P37	76	False	experiment	"Og hvis vi gør det her rigtigt, kan vi gøre bæredygtighed til en god forretning for Danmark. Vores udvikling af bæredygtige løsninger kan være med til at flytte verden. Vi har gjort det før. For eksempel besluttede vi for mange år siden at bekæmpe vandspild og satse på bedre vandkvalitet. I dag eksporterer vi vandteknologi for milliarder. Opfindelser som vindmøllehoveder, termostater og pumper er alle sammen 'made in Denmark.' Nu har verden brug for, at vi gør det igen."	"NO QUESTION"	NA	.	-1	-1	16867	18670	12	4	4
P37	77	False	experiment	"Jeg vil gerne sige tak til Roskilde Kommune, RUC og alle I andre regionale aktører, der har stillet op med viden og ressourcer i dagens anledning. I starter lokalt for at forandre globalt. Det er sådan, det skal gøres. Fremtiden er grøn. Jeres fremtid. Vores fremtid. Lad os sammen skabe den forandring, der er brug for. Rigtig god COconference."	"NO QUESTION"	NA	.	-1	-1	13282	18670	13	4	4
P37	78	False	experiment	"NY TALE BEGYNDER NU"	"NO QUESTION"	NA	.	-1	-1	1592	7946	-1	4	4
P37	79	False	experiment	"Godaften, og tak fordi jeg må komme og holde årets båltale. Jeg har glædet mig til skulle stå her i aften og holde båltalen og dermed fejre midsommer eller Sankt Hans aften, som det jo også hedder, sammen med alle jer. Midsommer er en helt speciel tid for mig, den er faktisk lige så vigtigt for mig som julen. For hvor vi ved jul mødes i mørket om de små lys. Så mødes vi i aften i det lille mørke for sammen at fejre det helt store lys. Velvidende, at nu drejer årstidshjulet en tak. Nu står vi midt i sommeren, og vi går dermed ... ja, jeg er ked af at sige det ... men vi går faktisk mod mere mørke tider."	"NO QUESTION"	NA	.	-1	-1	25180	7946	0	4	4
P37	80	False	experiment	"Men lad os nu glemme det for en stund og i stedet glæde os over lyset. Og lad os glæde os så meget, at vi også her i aften tænder lys. Og hygger og er sammen. For når vi så vælger at gå ud af vore huse. Ud af vores carporte og stige ned fra vore cykler og ud af vore biler. For at stå her sammen. Er det vel egentlig også, fordi vi ønsker at dele denne begejstring for lyset med hinanden. For hver eneste af jer. Er der noget, der gør, at I ikke synes, det er nok bare at tænde et fyrfadslys og passe parcellen."	"NO QUESTION"	NA	.	-1	-1	19447	7946	1	4	4
P37	81	False	experiment	"Nej, både I børn og I voksne har søgt mod det her fælleskab. Og hvorfor gør vi egentlig det som moderne mennesker midt i en online tid? Jamen så er det vel fordi – og pardon my french – at det sgu ikke bare er noget middelalderligt pjat med hekse og helgener. Eller vikingetidens Frejakult. Så er det, fordi det giver mening. Så vil jeg gætte på, at I er kommet, fordi midsommerfælleskabet og det store bål på en eller anden måde siger noget for jer, ligesom det siger mig noget."	"NO QUESTION"	NA	.	-1	-1	18881	7946	2	4	4
P37	82	False	experiment	"At stå her i midsommernatten. Og være fælles. Om lyset. Om varmen. Om sundet og Kronborg. Om fællesskabet. Selv med svenskerne derovre på den anden side. Fælles om ilden. Om jorden og havet, der omgiver vores lille ø Sjælland. Om dyrene og hinanden. Fælles om fred og de elementer og mineraler, der forbinder os. Om kvantepartiklerne, som er inden i os og millioner af kilometer væk, og dog er forbundne. Om demokratiet, som vi netop igen for få uger siden har fejret, uanset om vi er tilfredse med udfaldet eller ej. Fælles om vor historie. Som vore forfædre har bygget til os. I form af murstene som slottet bagved mig. Hvor en konge ved navn Christian holdt sin kroningsfest. "	"Spørgsmål:\nBliver denne tale holdt på Frederiksborg Slot?"	2	1	5284	0	26014	7946	3	4	4
P37	83	False	experiment	"Og en flok engelske skuespillere optrådte og fortalte om derhjemme, som blandet med Saxos fortællinger om en dansk prins, et engelsk hævndrama om en spansk tragedie, og en vis forfatters søns og faders død blev til en af de største fortællinger om os nogensinde, ikke bare som danskere, men som mennesker, om hvad det er at være menneske, på trods af at forfatteren efter sigende aldrig selv befandt sig på denne kyst. Fælles er vi også om de fortællinger, der har skabt denne aften. Om Lysfester, der skulle holde ondskaben ude. Om trolde og hekse, dæmoner."	"NO QUESTION"	NA	.	-1	-1	20448	7946	4	4	4
P37	84	False	experiment	"Solhversfesten, der overtog Valborgsnatten. Hvor mænd og kvinder drak snaps til de segnede. Og de unger piger skulle vogte sig for Sankthansormen. For den kunne man nemlig blive gravid af. Fælles er vi også om den rensende ild, det rensende bål, som ifølge gammel skik optager alle vore indre hekse, dæmoner og trolde. Og som ved at dvæle blikket mildt og uden at fokusere, stimulerer melatoninen inde i vore hjerner. Gør os rolige, afslappede, fredfyldte."	"NO QUESTION"	NA	.	-1	-1	19245	7946	5	4	4
P37	85	False	experiment	"Fælles er vi i fortællingen. Om en mand 3426 km herfra, som ifølge en læge ved navn Lukas, fødtes på denne dag. 6 måneder før sin fætter, hvis ankomst han skulle forkynde. Manden ved navn Johannes råbte i ørkenen om det, der vil ske, de muligheder, der vil komme. Efter ham opkaldtes denne dag nogle århundreder senere: Johannes dag, Johannes den hellige, sanctus Johannes, eller på DANSK: Sankt Hans. Fælles er vi om denne historie. Om vi tror på den eller ej. Myterne flyder sammen med religioner og folkefortællinger. Og selvom få tror på dem i bogstavelig forstand, hvad enten det gælder hyldemor eller jomfrufødsler, hekse eller huldrer. Så tror vi på det, der ligger bag ordene."	"Spørgsmål:\nEr 'Johannes den hellige' et andet navn for 'Sankt Hans'?"	1	1	4079	1	27582	7946	6	4	4
P37	86	False	experiment	"Et ordsprog siger, at vi ikke fortæller børn historier om drager for, at de skal tro på dem, men for at de skal lære at slå dem ihjel. Eller tæmme dem. Det samme gælder ord. Og fortællinger. Da Johannes' fætter endelig trådte frem der ved floden og lod sig døbe svævede en due over ham, fint symboliserende ånde. Og det er måske netop ånd, der skaber fællesskabet. Forbindelsen mellem os. Den, der ligger bag ordene, traditionerne, festerne, højtiderne. Traditioner uden ånd er glædesløse. Derfor er denne tradition særlig smuk. For den forbinder det hele. Lyset. Fortællingerne. Myterne. Glæden. Og freden. Om det at året går sin gang. Og at vi har nogen indbyggede, traditionsbundne milepæle, der markerer dette."	"NO QUESTION"	NA	.	-1	-1	31603	7946	7	4	4
P37	87	False	experiment	"For det sjove er vel egentlig også, at i aften tænker vi ikke på alt det, der skete de foregående 12 måneder siden sidste sommer. Nej, vi træder nærmest ind i en magisk stund. Hvor i går og i forgårs er forsvundet. Og at vi tænker på sidste års bålaften. Vi ophæver den kontinuerlige, lineære måde at se verden på. Hvor vi midt i alle vores praktiske gøremål – måler tiden et stykke efter et andet. Alt dette bliver for en stund ophævet."	"NO QUESTION"	NA	.	-1	-1	14558	7946	8	4	4
P37	88	False	experiment	"Og vi træder ind i årshjulets cirkulære rytme. For vi giver pokker i januars måneds lommesmerter og februars tristesse. Marts måneds tunge regn. Og april måneds forårsbebudning. Netop i aften er vi bare. Og vi lader tankerne gå mod alle de andre midsommeraftner. Fuldt af skønheden og nybrud. Fuld af forventninger, og vi kan på en aften som i aften næsten høre mosekonen brygge. Og føle, hvordan hyldeblomsten beruser os."	"NO QUESTION"	NA	.	-1	-1	16757	7946	9	4	4
P37	89	False	experiment	"Og hvad er det så for noget, vi tænker på? I har sikkert hver især jeres egne traditioner, som I har været en del af, inden i kommet her. I mit barndomshjem var det sådan, at lige så meget som julen var en familiær begivenhed, så var midsommer der, hvor de mødtes med den udvidede familie. Altså alle de venner, vi børn, vi så komme tit og tæt i barndomshjemmet."	"NO QUESTION"	NA	.	-1	-1	12192	7946	10	4	4
P37	90	False	experiment	"Så var man nemlig sammen med den selvvalgte familie. Og der fejrede de voksne hele aftenen det fælleskab, de havde etableret med hinanden mens vi unger legede. Og glædede os helt sindssygt til, at vi skulle være længe oppe. Og vi skulle se bål ... for efter mad og leg, så var det dét, vi skulle, vi skulle se bål. Og vi var sammen om det. Og da jeg blev ældre, søgte jeg selv mod mine egne selvetablerede fællesskaber. Ligesom I har gjort. Og ve den, som sad alene på sankthansaften."	"NO QUESTION"	NA	.	-1	-1	15801	7946	11	4	4
P37	91	False	experiment	"Som halvkikset teenager bestod en af årets udfordringer altid i at sørge for, at man var med i en flok på nytårsaften og så på midsommeraften. Og netop de aftener er nogen af de aftener og nætter, der for den, der ikke har et fælleskab, kan virke som uendelige. At sidde der alene og tælle sekunderne. Velvidende, at man ikke har en at holde i hånden, når bålet tændes. Ikke en af se smile. Og glæde sig med. Og det er en aften, hvor vi i vore voksne fælleskaber ofte prøver at huske at tage dem, der står udenfor et fælleskab med."	"NO QUESTION"	NA	.	-1	-1	17138	7946	12	4	4
P37	92	False	experiment	"Vi inviterer lige naboen med ind – om ikke andet – så for en kort stund. For vi kan vel ikke glædes. Hvis vi ikke har nogen at glæde os sammen med. Vi kan ikke nyde flammerne fra bålet. Og de lyse nætter, hvis vi ikke kan føre en samtale. Nyde stilheden sammen med et andet menneske, der står os nært. For netop dermed bliver vi frie. Vi bliver frie for ensomhedens trange kår. Og oplever den frihed, det at give og modtage sommerens varme kærlige kys på kinden, er."	"NO QUESTION"	NA	.	-1	-1	17102	7946	13	4	4
P37	93	False	experiment	"Så vi skal tænde bålet. For I er kommet med jeres fælleskaber for sammen at nyde de store flammer. Og det skal I også komme til. Og det bål, vi tænder, er et samlingspunkt for fælleskabet. Det helt nære og det selvvalgte. For i aften fejrer vi de lyse nætter. Vi fejrer, at vi som de frie mennesker, vi er, er frisat gennem de venner og den familie, de fælleskaber, som er den ild, og den motor, der driver os. Så når vi om lidt tænder bålet. Så er spørgsmålet vel, om det, vi gør, ikke også er vi sætter blus på vores fælleskaber."	"NO QUESTION"	NA	.	-1	-1	18713	7946	14	4	4
P37	94	False	experiment	"Tak for ordet."	"NO QUESTION"	NA	.	-1	-1	952	7946	15	4	4
