Session_Name_	Trial_Index_	Trial_Recycled_	condition	text	question	expected_key	QUESTION_KEY_PRESSED	QUESTION_RT	QUESTION_ACCURACY	SENTENCE_RT	speechid	paragraphid	counterbalance	LAST_COUNTERBALANCE
P44	1	False	practice	"NY TALE BEGYNDER NU"	"NO QUESTION"	NA	.	-1	-1	3357	1327	-1	0	0
P44	2	False	practice	"Hej alle sammen!"	"NO QUESTION"	NA	.	-1	-1	1451	1327	0	0	0
P44	3	False	practice	"Som I allerede ved, vil vi om lidt tænde for et bål, der vil brænde et skab af – det skab, vi har følt os begrænset af, indelukket i, og som de fleste af os er brudt ud af for at kunne blive lykkeligere."	"NO QUESTION"	NA	.	-1	-1	11077	1327	1	0	0
P44	4	False	practice	"'Men skabe er da ganske praktiske til opbevaring af mangt og meget, ikke sandt?' Jo, opbevaring af værdier, det er rigtigt – men når vi først begynder at sætte spørgsmålstegn ved disse værdier, så føles skabet mere og mere trangt, for det kan ikke rumme vores ideer og følelser mere."	"NO QUESTION"	NA	.	-1	-1	26165	1327	2	0	0
P44	5	False	practice	"'Jamen hvad er der i det skab?' Der er en opfattelse af at kvinder og mænd skal tænke, føle, klæde sig og handle forskelligt – fordi nogle er kvinder og andre er mænd. Kønsroller kalder vi det. Men det rækker faktisk meget længere end bare til roller, vi spiller – rollerne invaderer vores tanker og vores følelser, så vi næsten ikke kan tænke uden for rollen, så længe skabet omslutter os, og i hvert fald først og fremmest føler vi må tage hensyn til dem, der er i skabet..."	"Spørgsmål:\nMener taleren at kønsroller både påvirker hvordan vi handler og tænker?"	1	1	4476	1	31261	1327	3	0	0
P44	6	False	practice	"Når vi endelig bryder ud af skabet og for alvor viser og siger det, der ikke passer i det normative skab, kan vi godt opleve negative reaktioner – men så sandelig også positive – for vi er jo slet ikke alene!"	"NO QUESTION"	NA	.	-1	-1	19712	1327	4	0	0
P44	7	False	practice	"Der er nemlig andre som ligner os mere eller mindre, vi er en broget og mangfoldig flok i alle aldre, hudfarver, kulturelle baggrunde, med og uden handicap, med og uden tro, af forskellig politisk overbevisning, og – vigtigst for os her: af flere forskellige kønsidentiteter og seksuelle orienteringer."	"NO QUESTION"	NA	.	-1	-1	19490	1327	5	0	0
P44	8	False	practice	"Fælles for os er, at vi er en regnbueminoritet i forhold til flertallets skab – men det betyder ikke at majoriteten har ret. Vi vil udefra informere om, at der er andre måder at se tingene på, tilbyde et alternativt syn på livet og verden, som kan hjælpe nogle – især børn og unge – ud af et skab, de mistrives i."	"Spørgsmål:\nMener taleren at minoriteter bør tie med deres verdenssyn?"	2	2	2748	1	19964	1327	6	0	0
P44	9	False	practice	"Lad os brænde skabet med normerne, så vi frigøres fra dem og får retten til at være dem, vi faktisk er!"	"NO QUESTION"	NA	.	-1	-1	7249	1327	7	0	0
P44	10	False	experiment	"NY TALE BEGYNDER NU"	"NO QUESTION"	NA	.	-1	-1	1756	22811	-1	1	1
P44	11	False	experiment	"Fru minister, kære allesammen\nTusinde tak for, at I er mødt op i dag for at markere den internationale dag mod homo-, bi- og transfobi! Over hele kloden markeres dagen med tusindvis af arrangementer, som skal sætte fokus på de udfordringer, vi møder som en af de minoriteter i verden, som udsættes for mest forfølgelse og uretfærdighed."	"NO QUESTION"	NA	.	-1	-1	22185	22811	0	1	1
P44	12	False	experiment	"Det er en dag, som maner til sammenhold – sammenhold inden for hele gruppen af LGBTQI osv. Og til sammenhold, uanset hvilken geografisk, etnisk eller religiøs gruppe vi tilhører. Hvis LGBTQI-personer udgjorde en nation, ville vi være klodens tredje mest folkerige. Nu forholder det sig imidlertid sådan, at vi lever spredt over hele kloden – under vidt forskellige forudsætninger for at stå frem, kæmpe og frigøre os fra undertrykkelse. "	"NO QUESTION"	NA	.	-1	-1	27998	22811	1	1	1
P44	13	False	experiment	"Som vores demonstration her i dag meget grafisk illustrerer, så er der endnu 80 lande på jorden, hvor det at leve med en seksualitet eller kønsidentitet, som afviger fra flertallets, er strafbart – fra bøder til dødsstraf."	"NO QUESTION"	NA	.	-1	-1	15689	22811	2	1	1
P44	14	False	experiment	"Det er også derfor, vi står her i dag – for at huske på alle dem, som ikke ville kunne gøre tilsvarende i deres lande – af frygt for alvorlige repressalier – for at give dem stemme – for at huske på dem og for at lægge pres på vore politikere, så de tager LGBTQI-rettigheder op HVER gang, der er lejlighed til at gøre det – og uanset overfor hvem."	"Spørgsmål:\nEr det i alle lande risikofrit at tale højt om LGBTQI-rettigheder?"	2	2	4631	1	21706	22811	3	1	1
P44	15	False	experiment	"Vi skal ikke vige tilbage for at tale uretten midt imod. Og vi skal ikke relativere rettigheder. Om man er født i Kampala, Kathmandu, Cayenne eller København – så har man lige megen ret til at elske og leve i overensstemmelse med sig selv."	"NO QUESTION"	NA	.	-1	-1	19583	22811	4	1	1
P44	16	False	experiment	"Vi skal også bruge dagen til at minde os om, hvad vores eget sammenhold betyder – som LGBTQI-personer i Danmark 2016. Til at minde os om, at hvis vi ikke kæmper for alles ret i hele LGBTQI-familien – så taber vi også kollektivt kampen."	"NO QUESTION"	NA	.	-1	-1	19310	22811	5	1	1
P44	17	False	experiment	"I de sidste måneder har vi som organisationer – bl.a. de 4 organisationer, som står bag dagens demonstration – Sabaah, LGBT Danmark, Amnesty International og Copenhagen Pride – sammen med stærke transaktivister kæmpet den vigtige kamp for, at transpersoner i Danmark – og internationalt – fjernes fra listen over psykiske sygdomme. Alt tyder nu på, at denne kamp bærer frugt, og at det er lykkedes os at overbevise politikerne om, at Danmark skal gå forrest i verden på dette spørgsmål, og at det som i 1981, da det handlede om at fjernet homoseksuelle fra samme liste, betaler sig at vise verden vejen frem for at vente på WHO. "	"NO QUESTION"	NA	.	-1	-1	38988	22811	6	1	1
P44	18	False	experiment	"Det er vi glade for at have været med til at få til at lykkes – og det er lykkedes, fordi vi har stået bag hinanden og bakket hverandres kamp op. Sådan er vi stærke – for åben dialog og enighed i mål gør stærk."	"NO QUESTION"	NA	.	-1	-1	16093	22811	7	1	1
P44	19	False	experiment	"Kampen er ikke slut – nu skal vi bevare presset på den politiske proces, så transpersoner omsider får retten til egen krop og til at kunne bestemme over egen behandling – vi ønsker, at der indføres informeret samtykke i sundhedssystemet for transpersoner – ligesom for ALLE ANDRE DANSKERE, og vi ønsker, at der ændres i Sundhedsstyrelsens vejledning, så Sexologisk kliniks monopol brydes, og der igen indføres mulighed for, at transpersoner kan gå til en privatpraktiserende læge eller gynækolog for at få udskrevet de hormoner, de har brug for. "	"NO QUESTION"	NA	.	-1	-1	40621	22811	8	1	1
P44	20	False	experiment	"Transpersoner skal sættes fri – som selvstændige, myndige aktører i egne liv. Væk med umyndiggørelsen og formynderiet – det er uværdigt – det er umenneskeligt. Vi kan ikke finde os i det!!"	"NO QUESTION"	NA	.	-1	-1	11893	22811	9	1	1
P44	21	False	experiment	"Og det kan lade sig gøre. Hvis der er EN ting, der står tilbage fra sidste uges IDAHOT-forum i København, så er det den maltesiske minister for borgerrettigheder, sociale anliggender og forbrugerspørgsmål, Helena Dallis, svar på spørgsmålet: 'Hvad skal der til for at skabe forandring?'"	"NO QUESTION"	NA	.	-1	-1	18776	22811	10	1	1
P44	22	False	experiment	"Det skal lige siges, at den maltesiske regering på 3 år har ændret 85 forskellige lovkomplekser for at gøre dem mere homo-, bi-, trans- og intersex-inkluderende, hvilket har ført til, at det stærkt katolske Malta nu iflg. ILGA er langt det førende land i verden, når det gælder sikring af vore borgerrettigheder. Da de indledte arbejdet, var 80 % af befolkningen imod bedre rettigheder for LGBTQI-personer – nu, 3 år senere, er 80 % af befolkningen for."	"NO QUESTION"	NA	.	-1	-1	25784	22811	11	1	1
P44	23	False	experiment	"På spørgsmålet: 'Hvad skal der til for at skabe forandring?', svarede Helena Dalli: 'Two words: Political will!' Så let er det. Der skal vilje til – og mod! Politisk mod til ikke at lave politik efter meningsmålinger, men i forhold til, hvad man anser for at være rigtigt og retfærdigt, tilføjede hun."	"NO QUESTION"	NA	.	-1	-1	15040	22811	12	1	1
P44	24	False	experiment	"Så lad en opfordring til danske politikere lyde her fra Rådhuspladsen i dag: Gå forrest! Lad os skabe en revolution i fællesskab, hvor de sidste rester af LGBTQI-diskrimination endegyldigt fjernes fra dansk lovgivning. Sæt et arbejde i gang som det maltesiske, hvor lovgivningen systematisk granskes for uretfærdigheder, og lad disse blive fjernet – og nedsæt et råd af civilsamfundsorganisationer fra LGBTQI-miljøet til at rådgive jer om, hvordan man skaber ægte inkluderende lovgivning."	"Spørgsmål:\nMener taleren at LGBTQI-personer pt. diskrimineres af den danske lovgivning?"	1	1	7080	1	32433	22811	13	1	1
P44	25	False	experiment	"Vi husker, hvem der er med os, og hvem der går imod! Som Martin Luther King Jr. engang sagde: 'In the end, we remember not the words of our enemies, but the silence of our friends.'"	"NO QUESTION"	NA	.	-1	-1	8379	22811	14	1	1
P44	26	False	experiment	"Under sidste uges konference opfordrede de forsamlede politikere civilsamfundsorganisationerne til at være deres vagthunde – til at gøre dem opmærksomme på uretfærdigheder og til at være deres kritikere, når tingene ikke bevæger sig hurtigt nok frem. Det vil vi gerne – tak for invitationen. Men det forudsætter to afgørende ting:"	"Spørgsmål:\nOpfordrede politikerne i sidste uge civilsamfundsorganisationerne til at være deres vagthunde?"	1	1	6613	1	25168	22811	15	1	1
P44	27	False	experiment	"Den ene er, at I politikere sikrer, at vi har fornuftige forhold at arbejde under. I kan ikke på den ene side pålægge os det kollektive ansvar for på samfundets vegne at løfte denne opgave, og så samtidig ikke ville lægge midler til dette arbejde. Vi tre store organisationer, som står som arrangører her i dag, kan ikke i fællesskab mønstre én fuldtidsmedarbejder. "	"NO QUESTION"	NA	.	-1	-1	37218	22811	16	1	1
P44	28	False	experiment	"Alle er vi 100 % frivilligt drevet – og vi knokler for at skabe de resultater og den viden, I efterspørger. Men hvis I vil flytte det her område, som I siger, og hvis I vil basere jer på viden og fakta – så kræver det, at vi kan levere det – og det forudsætter altså, at man sætter midler af til indsamling af disse fakta."	"NO QUESTION"	NA	.	-1	-1	17800	22811	17	1	1
P44	29	False	experiment	"Vi KAN ikke gøre det selv!!"	"NO QUESTION"	NA	.	-1	-1	1798	22811	18	1	1
P44	30	False	experiment	"Det andet er, at I skal lytte, når vi taler med jer. Hør på og anerkend, hvilke problematikker og udfordringer vi lægger frem for jer – og stol på, at vi nok har ret, når vi påpeger dem. Undlad at negligere eller bagatellisere ting, der ikke influerer jer selv personligt."	"NO QUESTION"	NA	.	-1	-1	17739	22811	19	1	1
P44	31	False	experiment	"Tag som udgangspunkt, at vi ved, hvad vi taler om, og at når vi kommer med en problematik – så er det en, som bør løses – gennem politisk vilje og med politisk mod. Det er budskabet fra i dag! Støt os! Lyt til os! Brug os! Sammen kan vi skabe en bedre verden for LGBTQI-personer overalt. Og en sådan verden er en bedre verden for hele menneskeheden!"	"NO QUESTION"	NA	.	-1	-1	17323	22811	20	1	1
P44	32	False	experiment	"Tak for ordet, og tak til jer alle, fordi I kom i dag."	"NO QUESTION"	NA	.	-1	-1	1918	22811	21	1	1
P44	33	False	experiment	"NY TALE BEGYNDER NU"	"NO QUESTION"	NA	.	-1	-1	2326	26682	-1	1	1
P44	34	False	experiment	"Kære studenter\nEt stort tillykke med jeres eksamen. I sidder nu her, som så mange før jer har gjort. I har med hårdt slid taget jeres studentereksamen, proppet jeres hoveder med viden og nu fortjener I at blive fejret. Nogle af jer ser måske også lidt trætte ud, men det skyldes måske ikke kun det hårde, faglige arbejde."	"NO QUESTION"	NA	.	-1	-1	16573	26682	0	1	1
P44	35	False	experiment	"I har været igennem 12-13 års skolegang hvor det meste har været lagt til rette for jer. Nu skal I til at bruge jeres viden, i første omgang til at vælge hvilken retning jeres tilværelse skal tage. For de fleste af jer er det nok første gang nogensinde, at der ikke er et oplagt valg for hvad I skal efter sommerferien."	"NO QUESTION"	NA	.	-1	-1	15465	26682	1	1	1
P44	36	False	experiment	"I bliver presset af ungdomsarbejdsløshed og Folketinget presser jer med fx SU-reform til at gå hurtigt i gang med videregående studier. Jeg håber, I føler, at vi har klædt jer godt på i løbet af jeres tre år på VK, så I har den viden og de kompetencer, der kræves for at træffe en god beslutning for jeres videre færd."	"NO QUESTION"	NA	.	-1	-1	14457	26682	2	1	1
P44	37	False	experiment	"Men viden - hvad er det egentlig, hvad vil det sige at vide noget og kunne noget her i 2013? Jeres bedsteforældres generation skulle lære kongerækken udenad, remser med Europas floder og byer, ja sågar salmevers. Jeg ved ikke hvor stærke I er i kongerækken – I er næppe blevet hørt i det, men for jer er viden noget andet. I lærer mindre udenad og det skyldes nok først og fremmest, at I er meget bevidste om, hvor let I har ved at slå faktuel viden op. Man kan let føle, at man ved alt, hvad internettet ved. Bare man har en smartphone, iPad eller computer, så kan man slå det op."	"NO QUESTION"	NA	.	-1	-1	34489	26682	3	1	1
P44	38	False	experiment	"De fleste af jer kender den situation, at læreren har stillet et spørgsmål. I selv eller en af kammeraterne har hurtigt googlet det og har fundet svaret, rakt hånden op og har svaret korrekt på lærerens spørgsmål. Man kan betragte den situation på flere måder: Snød I læreren? eller snød I jer selv? Eller var det i virkeligheden en rigtig fornuftig måde at løse opgaven på? "	"NO QUESTION"	NA	.	-1	-1	17907	26682	4	1	1
P44	39	False	experiment	"Professor i psykologi ved Harvard University Daniel M. Wegner har skrevet en artikel med titlen 'Don’t fear the cybermind'. Hans siger altså, at vi ikke skal frygte det han kalder Cybermind. Han anbefaler, at vi accepterer internettet som en hukommelsesudvidelse og forstår, at grænsen mellem vores egen bevidsthed og internettet bliver mere og mere flydende."	"NO QUESTION"	NA	.	-1	-1	21072	26682	5	1	1
P44	40	False	experiment	"I virkeligheden er den måde at arbejde på karakteristisk for mennesket også uafhængigt af internettet. Vi mennesker lever sammen i grupper og netværk, hvor vi støtter hinanden med vores forskellige kompetencer eksempelvis vores forskellige viden. Nogen af jer kender måske den situation hjemmefra, at hvis man skal vide noget om familiens fødselsdage så går man til et familiemedlem, skal man vide noget om bilen så er det et andet familiemedlem man går til. Der er ikke én person i gruppen som ved det hele, men tilsammen ved de rigtig meget.  "	"NO QUESTION"	NA	.	-1	-1	24165	26682	6	1	1
P44	41	False	experiment	"På den måde er internettet blot en teknisk udvidelse af den måde at samarbejde og videndele på. Vi er alle blevet en del af et stort cybermind. Så længe vi er forbundet til vores maskiner gennem snak og tastetryk, kan vi alle være en del af det største og smarteste sind nogensinde. Det er kun, når vi er fanget i et øjeblik uden vores net-forbindelse, at vi vender tilbage til vores egen beskedne hukommelse. Og det sker efterhånden sjældnere og sjældnere."	"NO QUESTION"	NA	.	-1	-1	23835	26682	7	1	1
P44	42	False	experiment	"I har lige som den første årgang været igennem en eksamensperiode med adgang til internettet, men dog med en masse restriktioner og begrænsninger: krav om at I ikke måtte kommunikere og dermed heller ikke søge på internettet og så mister internettet jo en stor del af sin værdi. Men man arbejder i øjeblikket på at justere eksamensformerne, så gad vide om ikke man om få år kan benytte internettets muligheder fuldt ud – også til eksamen."	"NO QUESTION"	NA	.	-1	-1	23446	26682	8	1	1
P44	43	False	experiment	"Internettet har eksisteret i hele jeres levetid. De sociale medier såsom Facebook og YouTube har eksisteret siden I var 10-12 år gamle. Det gør jer i den grad til superbrugere og det giver jer en masse muligheder og fordele, men der er et par faldgruber som I bør være opmærksomme på:"	"NO QUESTION"	NA	.	-1	-1	11124	26682	9	1	1
P44	44	False	experiment	"Plagiat. Det er blevet meget let - man finder et eller andet tilsyneladende brugbart på internettet, kopierer og indsætter. Umiddelbart er det positivt. Andres viden bliver brugt og kommer til at indgå som viden hos endnu flere. Det foregår også professionelt, der dukker jævnligt sager op om litterært plagiat eller forskningsmæssigt plagiat."	"NO QUESTION"	NA	.	-1	-1	16452	26682	10	1	1
P44	45	False	experiment	"'Der er mange mennesker, der kommer til et livsresultat ligesom skoledrenge; de snyder ved at skrive facit ud af regnebogen uden selv at have regnet stykket'. Den sætning er plagiat fra min side. Det er ikke mig, der har formuleret det. Æren tilskrives den danske filosof Søren Kierkegaard. Det er i orden at benytte noget som andre har formuleret, når bare man ærligt siger, hvor man har det fra. Kierkegaard påstår her, at mange mennesker finder en vej igennem livet uden selv at have lavet mellemregningerne og dermed uden at have en dybere forståelse."	"NO QUESTION"	NA	.	-1	-1	34530	26682	11	1	1
P44	46	False	experiment	"Jeg vil i forlængelse heraf kommentere en anden mulig faldgrube ved at vende tilbage til noget af det jeg sagde tidligere: hvad var det som jeres bedsteforældre fik ud af at lære så meget udenad? De fik opbygget nogle tankestrukturer som gjorde dem i stand til at forstå, analysere og fortolke diverse input. Hvis de stødte på et årstal, vidste de med det samme en hel masse om samfundet på det pågældende tidspunkt ud fra en viden om hvilken konge som regerede. "	"NO QUESTION"	NA	.	-1	-1	23923	26682	12	1	1
P44	47	False	experiment	"Det er vigtigt for jer, at I fortsat opbygger en base af viden for selvom det er blevet lettere at slå faktuel viden op på internettet, så er det nødvendigt, at I har et skelet at hænge den viden op på. Så hvis I besvarer lærerens spørgsmål ved at slå svaret op på Google, så er det i orden, hvis I selv forstår svaret og kan forholde jer til det, men hvis I blot videregiver det som papegøjer, så fungerer det ikke, og I snyder jer selv. Det gælder ikke kun i gymnasiet og i skoleverdenen, men også i det samfund I skal ud i bagefter."	"NO QUESTION"	NA	.	-1	-1	23526	26682	13	1	1
P44	48	False	experiment	"Jeg citerede for lidt siden Kierkegaard og da det i år er 200 år siden hans fødsel vil jeg dvæle lidt ved ham. Hvad husker vi Kierkegaard for i dag, hvad kan vi bruge ham til? Kierkegaard var optaget af individet. Han opfordrer individet til at træde i karakter blive synlig. Menneske er ikke noget man er, men noget man bliver igennem de valg man træffer."	"NO QUESTION"	NA	.	-1	-1	27821	26682	14	1	1
P44	49	False	experiment	"Kierkegaard har fyldt meget i medierne her i 2013. Eksempelvis har Kulturredaktør på Berlingske Jesper Beinov skrevet følgende: 'Kierkegaards arv handler, for mig at se, om, at det frie valg er det moderne menneskes vilkår samtidig med at man er forpligtet på næsten. Ingen tvinger os i dag til bestemte livsvalg. Vi kan vælge at overtage det nedarvede, det overleverede, eller vi kan vælge at forkaste det. Så længe vi ikke skader andre, men lidenskabeligt og oprigtigt vælger og vedstår os vores valg, er der ingen som anfægter vores ret til dette'"	"Spørgsmål:\nMener taleren at Kierkegaard stadig er aktuel i medierne?"	1	2	17738	0	54463	26682	15	1	1
P44	50	False	experiment	"I står overfor at skulle træffe valg for jeres liv og der er et utal af muligheder: I kan fortsætte med at studere til august, og hvis I gør det, har I alle mange forskellige studier at vælge imellem. Eller I kan holde et eller flere sabbatår for at tjene penge, eller for at tage på højskole, tage ud at rejse. Der er virkelig mange muligheder. Nogle af jer vil nok også opleve, at man ikke altid kan gå den korteste og mest lige vej. Man ved aldrig hvilke muligheder og forhindringer, der dukker op. "	"NO QUESTION"	NA	.	-1	-1	21962	26682	16	1	1
P44	51	False	experiment	"Folketinget presser jer til at gå hurtigt i gang. For nogle af jer vil det være det rigtige valg – for andre kan det være bedre med en pause. Der findes ikke en facitliste med rigtige valg eller forkerte valg. Men jeg tror på værdien af at tage de valg man træffer alvorligt. Hvis ikke man har en plan, så har man ikke noget at afvige fra. Så risikerer man at flyde med strømmen som en korkprop i en bæk."	"Spørgsmål:\nMener taleren at det er positivt hvis studenterne flyder med strømmen?"	2	2	3513	1	22245	26682	17	1	1
P44	52	False	experiment	"Nu har jeg talt om individets frie valg. Frihed er en helt central værdi for os danskere, men en anden lige så vigtig værdi er individualismens modstykke: fællesskab. Og hermed vil jeg forlade Kierkegaard, for når det drejer sig om fællesskab er det ikke Kierkegaard, man skal lytte til."	"NO QUESTION"	NA	.	-1	-1	18891	26682	18	1	1
P44	53	False	experiment	"Jeg har ved samtaler med mange af jer fornemmet hvor meget fællesskabet betyder for jer, både fællesskabet i klassen, på årgangen og på tværs af årgangene – VK-fællesskabet. I har ikke alle haft lige gode vilkår for at deltage i fællesskabet – her tænker jeg specielt på ITX-klassen. "	"NO QUESTION"	NA	.	-1	-1	22183	26682	19	1	1
P44	54	False	experiment	"Vi dimitterer i år den første ITX-klasse. I har dels haft nogle HTX-fag fra Mercantec og nogle STX-fag fra VK og så har i idrætten til fælles. I har været i den helt særlige situation, at I to dage om ugen har været på Mercantec og tre dage om ugen her på VK. Det har selvfølgelig nogle gange gjort det vanskeligt for jer at føle tilhørsforhold både til den ene og den anden skole. Men i dag dimitterer jeg jer herfra og understreger hermed, at I er og altid vil være en del af VK’s årgang 2013."	"NO QUESTION"	NA	.	-1	-1	26084	26682	20	1	1
P44	55	False	experiment	"Og til hele årgangen vil jeg sige, at I har bidraget. Nogle mest i arbejdet på klassen, og andre i det store fællesskab. Det er helt afgørende for at få den nødvendige sammenhængskraft på skolen. Også for samfundet er det vigtigt, at det består af borgere, der er bevidste om deres pligter og moralske ansvar. Den danske filosof og læge \nKlemens Kappel har sagt:"	"NO QUESTION"	NA	.	-1	-1	36935	26682	21	1	1
P44	56	False	experiment	"Vi er villige til at handle moralsk (også når det ikke umiddelbart gavner os selv), men kun så længe vi kan konstatere, at andre også gør det. Hvis man ser, at andre ikke yder deres til et moralsk projekt, så mister man selv sin motivation til at yde sit."	"NO QUESTION"	NA	.	-1	-1	22500	26682	22	1	1
P44	57	False	experiment	"For at bevare et samfund, som vi alle ønsker at leve i, er den enkelte således nødt til at handle moralsk og yde sit til fællesskabet, ellers falder fællesskabet fra hinanden og sammenhængskraften forsvinder. Det gælder både i det nære og det lidt fjernere. Så lad være med at snyde i skat og tilran jer ikke fordele, I ikke er berettiget til. Gør ikke på jeres arbejdsplads kun det, I skal. Gør også det, der er nødvendigt og engagér jer."	"Spørgsmål:\nOpfordrer taleren tilhørerne til at handle mere egennyttigt?"	2	2	5096	1	28369	26682	23	1	1
P44	58	False	experiment	"I har som enkeltindivider og som årgang formået at engagere jer. fx via Senatet, med musicalen Tusindårsfornemmelser, Dansk Røde Kors indsamling, Novus, Radio WadUp, morgensamlinger, café, Minerva etc. På den måde har I bidraget positivt til fællesskabet her på skolen. Fællesskaberne begynder med familie og venner, går via arbejdspladsen og lokalsamfundet til hele Danmark for til sidst at ende med hele verden. Hvis synsvinklen kun er ens egen snævre, får vi en verden, som de fleste vil have det dårligt i. Det er dog vigtigt at begynde med det nære. Magter man ikke det, kan man heller ikke frelse verden."	"Spørgsmål:\nHar skolens elever opført Tusindårsfornemmelser?"	1	1	5018	1	42895	26682	24	1	1
P44	59	False	experiment	"Jeg har givet jer nogle gode råd: Først det ret konkrete at udnytte de fordele som jeres generation har, for brug af det som Daniel M. Wegner kalder cybermind.\nMen gør det kritisk og med høj moral. Det er fint at benytte internettets muligheder til netværksdannelse og videndeling, men I skal sørge for konstant at udvide jeres eget skelet af viden, ellers risikerer I, at det bliver plagiat og papegøjesnak."	"NO QUESTION"	NA	.	-1	-1	25281	26682	25	1	1
P44	60	False	experiment	"Stå ved de valg I træffer, men ikke på en dumstædig måde. Forudsætninger kan ændre sig og man kan i nogle tilfælde være nødt til at træffe nye valg. Tænk i fællesskaber og engagér jer."	"NO QUESTION"	NA	.	-1	-1	11850	26682	26	1	1
P44	61	False	experiment	"Den engelske forfatter Oscar Wilde sagde: 'Det eneste man kan gøre med gode råd, er at give dem videre. Selv har man aldrig nytte af dem'. Jeg har valgt at give jer nogle stykker. Jeg håber, I vil tage det positivt. Det er et udtryk for oprigtig interesse fra min side. Jeg vil ønske jer alt mulig held og lykke på jeres fremtidige færd og sige til jer, at I altid er velkomne på Viborg Katedralskole."	"NO QUESTION"	NA	.	-1	-1	33924	26682	27	1	1
P44	62	False	experiment	"Med disse ord dimitterer jeg jer som studenter fra VK 2013."	"NO QUESTION"	NA	.	-1	-1	1961	26682	28	1	1
P44	63	False	experiment	"NY TALE BEGYNDER NU"	"NO QUESTION"	NA	.	-1	-1	1841	18473	-1	3	3
P44	64	False	experiment	"Goddag alle sammen. Mit navn er Frederik Sandby. Jeg er studerende ved kandidatuddannelsen i Klimaforandringer ved Københavns Universitet og er medstifter af Den Grønne Studenterbevægelse. I har måske hørt om os, ja, det er blandt andre os, som stædigt og utålmodigt går sammen i regn og slud til klimastrejkerne og mange af os, som arrangerer Folkets Klimamarch for at kræve øjeblikkelig klimahandling og en verden uden total klimakollaps."	"NO QUESTION"	NA	.	-1	-1	25714	18473	0	3	3
P44	65	False	experiment	"I dag er jeg her jo for at tale om de 17 verdensmål, og det er vel meget passende, for som Katherine Richardson siger, så er den mest effektive måde at løse klimakrisen på samtidig at opfylde de 17. verdensmål."	"Spørgsmål:\nEr der 19 FN verdensmål?"	2	2	1852	1	15977	18473	1	3	3
P44	66	False	experiment	"De 17 verdensmål er en vision om en bæredygtig verden, men på mange måder er de 17 verdensmål for mange unge blevet synonym med politikere, som siger én ting, og gør en anden. Så når vi i dag er samlet for at tale om, hvordan vi kan engagere de mange frem for de få, så har vi først en grundlæggende opgave foran os. Vi har til opgave at sørge for, at vi få selv tror på de 17 verdensmål. For gør vi egentlig det?"	"NO QUESTION"	NA	.	-1	-1	29720	18473	2	3	3
P44	67	False	experiment	"De 17 verdensmål handler om en verden i mere harmoni end i dag, men på en række af verdensmålene, nemlig de, som omhandler vores natur og klima, fejler vi igen og igen."	"Spørgsmål:\nMener taleren at vi klarer os godt i forhold til alle de 17 verdensmål?"	2	2	2043	1	11665	18473	3	3	3
P44	68	False	experiment	"Så er det da klart, at vi unge bliver desillusionerede, fordi samtidig med at vi kan se, at det går den forkerte vej, ser vi samtidig at danske og udenlandske forskere siger, at Danmark er et af de lande i verden, som bidrager allermest til menneskeskabte klimaforandringer pga. vores massive klimaaftryk. Derfor bliver de 17 verdensmål udvandede, og derfor går tusindvis af unge i Danmark og millioner af unge verden over fredag efter fredag sammen i klimastrejkerne."	"Spørgsmål:\nForegår klimastrejkerne om tirsdagene?"	2	2	1715	1	20427	18473	4	3	3
P44	69	False	experiment	"Hvis vi ønsker, at verdensmålene skal forankres i befolkningen, så skal der først og fremmest ærlighed og ansvarlighed tilbage i Folketinget, ærlighed i at fortælle situationens alvor og ansvarlighed i at behandle det, for hvad det er: nemlig en eksistentiel krise."	"NO QUESTION"	NA	.	-1	-1	20399	18473	5	3	3
P44	70	False	experiment	"Men bliver dette gjort? Mener I, at regeringens finansudspil afspejler en verden, der bevæger sig imod et økologisk kollaps og samfundskollaps? Kan man gå ind for de 17 verdensmål og fortsat give tilladelser til at udvinde mere og mere olie i Nordsøen? Det 13. verdensmål lyder: Vi skal handle hurtigt for at bekæmpe klimaforandringer og deres konsekvenser."	"NO QUESTION"	NA	.	-1	-1	17967	18473	6	3	3
P44	71	False	experiment	"Men alligevel får regeringen det til at lyde som om, at en 70% reduktion i danske, nationale drivhusgasser i 2030 målt i forhold til 1990 er en næsten uoverkommelig opgave, selvom det kun er et skridt på vejen til at opnå klimaretfærdighed og opfylde de 17 verdensmål."	"Spørgsmål:\nMener taleren at en 70% reduktion af danske nationale drivhusgasser i 2030 målt i forhold til 1990 er tilstrækkeligt for at opnå klimaretfærdighed?"	2	1	6888	0	27724	18473	7	3	3
P44	72	False	experiment	"For hvis vi omsætter reduktionsmålet til den procentmæssige reduktion i det totale danske klimaaftryk, altså medregnet forbrugsopgjorte udledninger, så er det kun en 25% reduktion i 2030 målt i forhold til i dag. Synes I, det er ambitiøst?"	"NO QUESTION"	NA	.	-1	-1	10552	18473	8	3	3
P44	73	False	experiment	"Så sent som i tirsdags stod statsministeren og forsikrede os om, at regeringen vil handle for at opfylde det 13. verdensmål og bekæmpe klimakrisen. Men der er på nuværende tidspunkt absolut ingenting, som peger på, at vi tidsnok ser fundamentale samfundsforandringer. Til det er der brug for en helt ny form for politisk mod og vilje. Vi unge ønsker, at den viden, som udvikles på universiteterne også anvendes i samfundet. Vi ønsker et samfund, som er mere baseret på fakta, mod og visioner."	"NO QUESTION"	NA	.	-1	-1	21260	18473	9	3	3
P44	74	False	experiment	"Selvom der allerede eksisterer bunkevis af forskning, som politiske ledere og beslutningstagere burde tage udgangspunkt i, så ønsker vi unge at se mere forskning, der søger at realisere globale mål for social og miljømæssig bæredygtighed. Og udover at bidrage til den internationale forskning skal disse resultater hurtigt omsættes til formidling, samarbejde og handling i dansk politik og bred offentlighed."	"NO QUESTION"	NA	.	-1	-1	20551	18473	10	3	3
P44	75	False	experiment	"For der er behov for, at universiteterne målrettet arbejder med de 17 verdensmål som rettesnor, og at universiteterne får en stærkere rolle som den primære institution til at istandgøre fremtidens generationer til det 21. århundredes udfordringer."	"NO QUESTION"	NA	.	-1	-1	15253	18473	11	3	3
P44	76	False	experiment	"Vi har brug for at få alle fagligheder i spil, da det i høj grad er gennem tværfaglige løsninger, at vi skal håndtere de 17 verdensmål. Vi skal have igangsat processer for, hvordan de enkelte fagområder kan arbejde med og bidrage til at forhindre klimaforandringerne og løse den økologiske krise. Centralt er det, at der også skal undervises i økonomiske teorier, hvor klodens planetære grænser indtænkes i det økonomiske system."	"NO QUESTION"	NA	.	-1	-1	23200	18473	12	3	3
P44	77	False	experiment	"For et af vores største problemer er, at det økonomiske system, som vores fantastiske velfærdsstat, som visionære danskere har skabt i det 20. århundrede, er baseret på et stort forbrug af fossile brændsler og en generel overudnyttelse af jordens naturressourcer."	"NO QUESTION"	NA	.	-1	-1	11849	18473	13	3	3
P44	78	False	experiment	"I det 21. århundrede er det modige politikeres opgave at redefinere velfærdsstaten på en måde, hvor velfærd og et lavt klimaaftryk går hånd i hånd. Det lykkes kun, hvis vi tager ansvar for alle de danske udledninger - også dem, vi har outsourcet til udlandet."	"NO QUESTION"	NA	.	-1	-1	15889	18473	14	3	3
P44	79	False	experiment	"Hvis vi vil engagere de mange frem for de få i 17 verdensmål, så skal vi sørge for at vise, at de 17. verdensmål bliver taget seriøst. For verdensmålene er et smukt rammeværk for en bæredygtig verden for alle mennesker på planeten og en nødvendighed for fremtidens velfærd, stabilitet og lykke."	"NO QUESTION"	NA	.	-1	-1	12380	18473	15	3	3
P44	80	False	experiment	"Engagement - Samarbejde - Forandring"	"NO QUESTION"	NA	.	-1	-1	2442	18473	16	3	3
P44	81	False	experiment	"NY TALE BEGYNDER NU"	"NO QUESTION"	NA	.	-1	-1	1605	11171	-1	3	3
P44	82	False	experiment	"Kære Alle\nMit navn er Andrea Rygg Karberg, og jeg startede 1. juni som ny direktør for Nivaagaards Malerisamling. Mine første 23 dage har været forrygende travle, skægge og glade. Jeg har set frem til at opleve også denne her smukke Nivaagaard-tradition, og jeg blev meget beæret, da jeg blev bedt om at holde årets båltale. En båltale er jo sådan en slags frit emne, så jeg har haft mange forskellige ideer – og jeg er endt med at ville tale om en række H’er: Sankt Hans – hedenskab – hekse – og Holger Drachmann."	"NO QUESTION"	NA	.	-1	-1	22233	11171	0	3	3
P44	83	False	experiment	"Det er faktisk i morgen, 24. juni, der altid har heddet sankthansdag – og aftenen inden er så sankthansaften – og denne Hans er det danske navn for Johannes Døberen, ham vi kan se i mange værker herinde i samlingen! Han var jo lidt af en dommedagsprædikant, der også banede vejen for profetens komme og døbte Jesus. Hans mor var i familie med Jomfru Maria, og når madonna af og til ses afbildet med to drengebørn, er den ene altid Jesusbarnet og den anden Johannes Døberen, der altså var netop et halvt år ældre end Jesus."	"NO QUESTION"	NA	.	-1	-1	28574	11171	1	3	3
P44	84	False	experiment	"Danskernes sankthansbål og sankthanstraditioner har for mig at se intet med Johannes Døberen at gøre. Det er gamle hedenske traditioner, der er overført til den kristne tid og har fået nye navne. Vi fejrer i dag, at vi sådan ca. har årets længste dag og årets korteste nat – ligesom vi har lagt Jesu fødselsdag ca. på den dag, hvor man altid har markeret årets korteste dag og længste nat. "	"NO QUESTION"	NA	.	-1	-1	16049	11171	2	3	3
P44	85	False	experiment	"Så selv om det ikke er til at holde ud at tænke på, handler dagen i dag om, at nu går vi mod mørkere tider!! Og det er jo fornuftigt at udskyde det længst muligt ved blandt andet at tænde et stort bål og nyde ildens lys som en hyldest til den livgivende sol, vi elsker og tit savner. I alle de såkaldt primitive religioner er solen den stærkeste guddom, og festen i dag er i sin grundvold herligt hedensk."	"NO QUESTION"	NA	.	-1	-1	20344	11171	3	3	3
P44	86	False	experiment	"Så er der det med heksene. Vi har i dag her på bålet en sjældent flot en af slagsen, som er lavet af de lokale spejder-juniorer, 'De Vilde Svaner', som jeg gerne vil sige en stor tak til. Jeg vil også gerne sige tak til en af vores mange fantastiske frivillige, John, som, når jeg er færdig, vil tænde bålet. "	"Spørgsmål:\nHar spejderne 'De Vilde Svaner' lavet heksen på bålet?"	1	1	2432	1	14571	11171	4	3	3
P44	87	False	experiment	"Jeg ved ikke, hvad Nivaagaards Malerisamling skulle gøre uden jeres mange talenter og store engagement, det er helt vidunderligt, at der er så mange, der gerne vil yde noget ekstra i en god sags tjeneste, som eksempelvis en kunstsamling i verdensklasse, der er givet i gave til os alle. Generøsitet er et nøgleord for Nivaagaards Malerisamling.
"	"NO QUESTION"	NA	.	-1	-1	12679	11171	5	3	3
P44	88	False	experiment	"Tilbage til H’erne og heksene. De kloge koner med kendskab til magi. Deres urgamle ritualer blev forbudt med kristendommen, de blev gjort til noget uhyggeligt i folkeeventyrene, hvor de vil spise Hans og Grethe, og det er først på det seneste med Harry Potter bøgerne, at de er blevet populære igen. Heksebrændingerne er et meget mørkt kapitel i historien."	"NO QUESTION"	NA	.	-1	-1	12713	11171	6	3	3
P44	89	False	experiment	"I Danmark intensiveredes heksejagten under Kong Christian IV, renæssancekongen, i den tid, vi også har mange billeder fra her i samlingen. Vi kender ham som en kunstnerisk sjæl og en stor bygherre – og så var han helt vild med kvinder. Han var en mægtig herre, men tit tog kvinderne magten over ham, de ødelagde hans koncentrationsevne – han blev kulret og tænkte sandsynligvis, at det aldrig kunne være hans egen skyld, men at kvindfolk simpelthen havde en særlig evne til at forhekse de stakkels mænd."	"NO QUESTION"	NA	.	-1	-1	28291	11171	7	3	3
P44	90	False	experiment	"Der findes mange nedskrevne retssager fra den tid, og det er frygteligt at tænke på, hvis man ikke selv i dag tror på hekse, hvad det er for faktorer, der har gjort visse kvinder til udstødte syndebukke og ofre for beskyldninger om at være hekse. Det har tit været de klogeste og smukkeste kvinder, som nogle var jaloux på, eller de svageste og fattigste, som var nemme at træde på. De benægtede alle til at starte med, men efter en passende mængde tortur indrømmede de deres heksekunster, som vi nok alle ville gøre."	"NO QUESTION"	NA	.	-1	-1	28663	11171	8	3	3
P44	91	False	experiment	"Jeg har læst om en ægtemand, der holdt en hel uge, før han indrømmede, at ja, hans kone var så en heks da. Og så blev de brændt, og med dem det onde selv, håbede man. Nogle århundreder senere kan tingene blive vendt på hovedet, og dermed hvem, der egentlig udførte den onde handling. Behovet for syndebukke er almenmenneskeligt og florerer til alle tider. "	"NO QUESTION"	NA	.	-1	-1	24600	11171	9	3	3
P44	92	False	experiment	"Selv om det er helt utopisk, er det mit ønske, at den heks, vi brænder i aften, ikke er et menneske, men et symbol på al uretfærdighed. Lad os brænde behovet for syndebukke og påtage os ansvaret for vore egne handlinger. Lad os favne heksene, dem, der render rundt derude – og heksene i os selv. Der er gode og onde tilbøjeligheder i os alle, og hvis man vil stræbe efter at udrydde det onde, er det ganske fornuftigt at prøve at starte med sig selv."	"NO QUESTION"	NA	.	-1	-1	21360	11171	10	3	3
P44	93	False	experiment	"Og så er jeg nået til den kære Holger Drachmann, som jo har skrevet den midsommervise, vi om lidt skal synge, som John vil hjælpe med at dele ud. Teksten er så smuk, og jeg håber sådan, at vi kan leve op til digterens ord om, at vi vil kæmpe imod ufred, lidt selvmodsigende, men netop fordi vi vil have fred her til lands. Og Drachmann slutter med at sige, at freden kan vindes, hvor hjerterne aldrig bliver tvivlende kolde."	"Spørgsmål:\nHar Herman Drachmann skrevet midsommervisen?"	2	1	4545	0	27532	11171	11	3	3
P44	94	False	experiment	"Det er rigtigt. Når ondskaben skal bekæmpes, skal vi starte i vore egne hjerter. Hvad end vi i aften mindes Johannes Døberen eller solguden, brænder vi på vores bål ikke en stakkels uskyldig heks. Vi drømmer om at brænde ufreden selv. Vi sender kærlige tanker til alle de studenter, der har kørt i vogn i dag, og til alle unge mennesker, der med digterens ord lige nu går glade til dans. Vi glæder os til den lange, smukke og vidunderlige sommer, der ligger foran os. Og lad nu vores sankthansbål varme os helt ind i vores hjerter, så de aldrig bliver tvivlende kolde."	"NO QUESTION"	NA	.	-1	-1	27584	11171	12	3	3
P44	95	False	experiment	"NY TALE BEGYNDER NU"	"NO QUESTION"	NA	.	-1	-1	2257	12063	-1	2	2
P44	96	False	experiment	"Lys, der varer ved. Bål, der slår gnister. Glade stemmer, der blander sig med hinanden. Studenterhuer, der viser sig overalt i gadebilledet. Sommerferie, der står for døren. Fællessang, der luner. En kold øl."	"NO QUESTION"	NA	.	-1	-1	15202	12063	0	2	2
P44	97	False	experiment	"'Vi elsker vort land, men ved midsommer mest'."	"NO QUESTION"	NA	.	-1	-1	5502	12063	1	2	2
P44	98	False	experiment	"Uanset hvilken melodi, man synger på, hvilket næb man synger med, eller hvilken hue, man har på til anledningen, så er midsommer og sankthans bare indbegrebet af Danmark."	"NO QUESTION"	NA	.	-1	-1	7525	12063	2	2	2
P44	99	False	experiment	"Til sankthans er 'sommerens hjerter så varme, så glade'. Her 'går ungdom til dans'. Og det hele passer derfor også så fortrinligt til en fest som den, vi har her i aften tæt ved Domus Felix, et hus, hvis navn er latin og betyder noget med glædens hus, det glade hus, med plads til fornøjelse."	"NO QUESTION"	NA	.	-1	-1	15439	12063	3	2	2
P44	100	False	experiment	"Vi har heldigvis så meget at være glade for i Danmark, og også her ved det glade hus i selskab med masser af glade mennesker i Lejre."	"NO QUESTION"	NA	.	-1	-1	6090	12063	4	2	2
P44	101	False	experiment	"Kun finnerne er lykkeligere end danskerne, viser den årlige rapport med titlen 'World Happiness Report', ifølge TV2. Men vi er foran både Norge, Sverige og Canada og flere andre gode lande. Og allernederst er lande som Sydsudan, Yemen og Haiti med ufattelige mængder af dræbte i krig, borgerkrig og naturkatastrofer."	"NO QUESTION"	NA	.	-1	-1	12526	12063	5	2	2
P44	102	False	experiment	"Vi har en fredelig natur, en stærk kultur, et levende demokrati, i Lejre, på Sjælland, i Danmark. Og vi har lige fået lov til at sige vores mening ved to valg i træk. Vi kan mødes frit, tale frit, tænke frit, udvikle os, modtage undervisning, søge lykken for os selv og for vores børn."	"Spørgsmål:\nNævner taleren at der netop har været valg i Danmark?"	1	2	5100	0	14811	12063	6	2	2
P44	103	False	experiment	"Det er lidt anderledes, end hvad den tyske biskop Thietmar af Merseburg skrev om lige i begyndelsen af 1000-tallet efter at have undersøgt forholdene på vore breddegrader. Biskoppens ord lød:"	"Spørgsmål:\nVar biskop Thietmar af Merseburg tysk?"	1	1	2806	1	8712	12063	7	2	2
P44	104	False	experiment	"'Der er i de egne et sted, der hedder Lederun [Lejre], i det distrikt der hedder Selon [Sjælland]; der er kongedømmets hovedstad. Til dette sted kommer alle folk sammen hvert niende år i januar måned, efter den tid, hvor vi fejrer Herrens tilsynekomst (jul), og der ofrer de 99 mænd og lige så mange heste og hunde og haner i stedet for høge. Sikkert og vist mener de, som jeg tidligere har sagt, at disse vil bevare dem for underverdens magter, og at de vil sone de forbrydelser, de har begået mod dem.'"	"NO QUESTION"	NA	.	-1	-1	36245	12063	8	2	2
P44	105	False	experiment	"Det er min gode, gamle kollega fra Københavns Universitet, Morten Warmind, der har oversat den tekst, jeg læste. Og oversættelsen indgår som et slående citat i et nyt forskningsværk, som en ny kollega fra ROMU lige har været med til at udgive. Citatet trækker på godt og ondt Lejres historie meget langt tilbage i tiden."	"NO QUESTION"	NA	.	-1	-1	14136	12063	9	2	2
P44	106	False	experiment	"Arkæolog Tom Christensen, der i årtier har arbejdet i området, har gennem sit arbejde kunnet finde forbindelser endnu længere tilbage og dokumenteret magt og organisation og imponerende bygnings-konstruktioner i det, vi i dag kender som Gl. Lejre, helt tilbage til sen jernalder og tidlig vikingetid. Det var og er et vigtigt sted, som vi i dag holder sankthansfest ved. Smukt. Rigt. Centralt. Betydningsfuldt. Med fædrene gravhøje, der går årtusinder tilbage."	"NO QUESTION"	NA	.	-1	-1	23947	12063	10	2	2
P44	107	False	experiment	"LEJRE betyder hytte eller telt. Det var et centrum i århundrederne før Gorm den Gamle og Harald Blåtand for flere af de historier om Danmark, som vi siden har bygget vores fællesskab op omkring."	"NO QUESTION"	NA	.	-1	-1	12654	12063	11	2	2
P44	108	False	experiment	"Men det er også meget godt, at vi er kommet videre i menneskesyn og normer. Godt nok synger vi, 'hver by har sin heks, og hvert sogn sine trolde', men vi nøjes i dag da heldigvis med at holde hekse og trolde og andet ondskab i skak med glædesblus, med lys, med hjertevarme, med godt humør, med fællesskab, med overskud."	"NO QUESTION"	NA	.	-1	-1	14924	12063	12	2	2
P44	109	False	experiment	"Det er på vore breddegrader for længst slut med den slags gamle ritualer, hvor mennesker måttes i bytte for andre menneskers liv og lykke."	"NO QUESTION"	NA	.	-1	-1	5766	12063	13	2	2
P44	110	False	experiment	"'Vi vil fred her til lands, sankte Hans, sankte Hans!', synger vi. Og freden kan vindes der, hvor hjerterne aldrig bli’r tvivlende kolde."	"NO QUESTION"	NA	.	-1	-1	17187	12063	14	2	2
P44	111	False	experiment	"Når nogle måske i denne sommer har set et F16-fly med Dannebrogs farver på oppe på himlen, så er det derfor heller ikke et signal om krig, men en venlig påmindelse om, at vi i fred og fordragelighed i år kan fejre 800-året for, at Dannebrog blev vores kongeflag og siden nationalflag."	"Spørgsmål:\nEr Dannebrog 900 år gammelt?"	2	1	2013	0	17721	12063	15	2	2
P44	112	False	experiment	"Vi elsker vort land, men ved midsommer mest."	"NO QUESTION"	NA	.	-1	-1	2066	12063	16	2	2
P44	113	False	experiment	"Det var også i højsommeren 1969, altså for 50 år siden, at et menneske første gang satte sine ben på Månen. Og vi fik billeder retur deroppefra, som viste, hvor lille, hvor skrøbelig, hvor overskuelig og hvor smuk, den runde jord tager sig ud – sådan lidt på afstand."	"NO QUESTION"	NA	.	-1	-1	9331	12063	17	2	2
P44	114	False	experiment	"Og det var i sensommeren 1969, at det senere så populære og folkekære band Gasolin’ med Kim Larsen som forsanger blev til. Gasolin’ og Kim Larsen havde masser af succes dengang. Men de vidste også, at om natten, når lyset brænder ud, og alt bliver stille, så er du, så er jeg, ene og alene."	"NO QUESTION"	NA	.	-1	-1	15213	12063	18	2	2
P44	115	False	experiment	"Det er livets kontrast, som fejringen af sankthans med bål og sange og fællesskab også minder os om. Vi tænder lyset, når mørket er ved at falde på. I mørkets skær, ser vi lyset bedst. Det er i kontrast til stilheden, at vi værdsætter al den pludren, snakken og brummen, som er lyden af fællesskab og fest og glæde."	"NO QUESTION"	NA	.	-1	-1	13787	12063	19	2	2
P44	116	False	experiment	"Det er, når vi tænker på, hvor slemt det var engang, eller hvor ulykkeligt livet kan være i andre lande, at vi opdager, hvor lyst, hvor godt, hvor dejligt, vi i grunden selv har det. Det er, når vi ser på jorden ude fra universet, at vi opdager, hvor skrøbelig den er, og hvor meget, vi har brug for at passe på den og på hinanden. Det er efter en lang stribe af hverdage, at det er så helt vidunderligt at kunne holde fest, sankthansfest, midsommerfest, glædesfest, lysfest."	"NO QUESTION"	NA	.	-1	-1	22027	12063	20	2	2
P44	117	False	experiment	"Og lad så hjertevarmen og glædesblussene holde rigtig, rigtig længe i år. Rigtig god sankthans. Og rigtig god sommer."	"NO QUESTION"	NA	.	-1	-1	5783	12063	21	2	2
P44	118	False	experiment	"NY TALE BEGYNDER NU"	"NO QUESTION"	NA	.	-1	-1	793	26670	-1	2	2
P44	119	False	experiment	"Kære Studenter\nRigtig hjertelig tillykke med jeres eksamen. I er ved vejs ende og kan puste ud. I har gået på Viborg Katedralskole i tre år. Det har været tre år med masser af hårdt arbejde, danske stile, matematikafleveringer, Studieretningsprojekt, fremlæggelser på klassen og nu til slut diverse eksaminer. Men det har selvfølgelig også været klassefester, Minervafester, galla, studierejser og diverse cafeer. "	"NO QUESTION"	NA	.	-1	-1	13463	26670	0	2	2
P44	120	False	experiment	"Men fælles for jer alle er, at I har brugt masser af kræfter på fagene og skolegangen – ellers havde I ikke siddet foran mig her i dag. Så nu er det tid til at feste og fejre sammen med kammerater og sammen med familien. I har fortjent det, og man hviler så godt ovenpå fuldendt gerning."	"NO QUESTION"	NA	.	-1	-1	12173	26670	1	2	2
P44	121	False	experiment	"Jeg vil også sige tillykke til jeres familie, der har støttet jer og stået bag jer i de tre år I har gået her. For alle os der har været med jer på rejsen hertil er det skønt at være her i dag. Vi glæder os alle sammen med jer og vi er stolte af jer."	"Spørgsmål:\nSiger taleren også tillykke til studenternes familier?"	1	2	4610	0	10597	26670	2	2	2
P44	122	False	experiment	"Nu er tiden på VK forbi. Et kapitel i jeres liv er slut. I er naturligvis glade for at det er ovre. Nu kan I med rigtig god samvittighed nyde, at I er færdige, nyde sommeren, den blå himmel, de mange flag, turene rundt til klassekammeraterne og ja en enkelt øl eller to måske – ja alle de forskellige festlige lejligheder. Det er i det hele taget en særdeles lykkelig tid."	"Spørgsmål:\nOmtaler taleren gymnasiet som 'RK'?"	2	2	2241	1	14642	26670	3	2	2
P44	123	False	experiment	"Lykke – Jeg vil starte med uddrag af et digt om lykken skrevet af Benny Andersen\nder er noget særligt ved lykken\nsom man ellers ikke møder\nmåske ligger fejlen der\nman kender for lidt til den\nburde sætte sig mere ind i den\n– jeg tror at det er en træningssag"	"NO QUESTION"	NA	.	-1	-1	18069	26670	4	2	2
P44	124	False	experiment	"Lykken er noget særligt – noget positivt, men man kender for lidt til den siger Benny Andersen. Han tror det er en træningssag, at man bliver bedre til at være lykkelig, hvis man øver sig. Nu vil jeg dvæle ved hvad det vil sige at være lykkelig, altså at lære den at kende, så kan I kaste jer over træningen bag efter."	"Spørgsmål:\nHar Benny Andersen skrevet digtet om lykke?"	1	1	2090	1	17343	26670	5	2	2
P44	125	False	experiment	"Professor ved Aarhus Universitet Christian Bjørnskov har forsket i lykke og skrevet en bog om emnet. Jeg vil give jer en række citater af ham for på den måde at blive klogere på lykken. Bjørnskov skelner mellem to forskellige former for lykke: den lykkefølelse, der udspringer af lykkelige øjeblikke og så den mere langvarige lykke – det gode liv."	"NO QUESTION"	NA	.	-1	-1	14252	26670	6	2	2
P44	126	False	experiment	"De berusende, lykkelige øjeblikke – lykkeglimt – håber jeg, at I har haft og har mange af for tiden: når en mundtlig eksamen var godt overstået, det øjeblik hvor I endelig fik huen på hovedet af én som står jer nær, når familie og venner kommer for at fejre jer. Den slags lykkelige øjeblikke er vigtige for os. Den slags oplevelser skal helst komme ind i mellem og give os gode minder. Christian Bjørnskov er dog mere optaget af den langvarige lykke – det gode liv. Jeg vil fremhæve nogle af de elementer som ifølge Bjørnskov er med til at skabe det gode liv."	"NO QUESTION"	NA	.	-1	-1	17791	26670	7	2	2
P44	127	False	experiment	"Det første jeg vil nævne, er den personlige frihed, retten til selv at vælge livsforløb er vigtig for menneskers langvarige lykkefølelse. Der er heldigvis mange veje til det gode liv. Det er vigtigt, at man får lov til at vælge sine egne veje. Christian Bjørnskov siger: 'Fornemmelsen for personlig frihed i eget liv er central for folks opfattelse af deres eget liv, det giver dig mulighed for at vælge egen livsstil og –retning og mulighed for at lave ting om'."	"NO QUESTION"	NA	.	-1	-1	33260	26670	8	2	2
P44	128	False	experiment	"I forhold til det sidste 'mulighed for at lave ting om' og dermed påvirke jeres dagligdag og sætte jeres præg på tingene. Den mulighed har mange af jer benyttet jer af i den tid, I har gået her. Mange af jer har mest bidraget i faglige sammenhænge på klassen eller i sociale sammenhænge, hvor I var med til at sikre et godt sammenhold i klassen"	"NO QUESTION"	NA	.	-1	-1	16346	26670	9	2	2
P44	129	False	experiment	"Andre var med i Senatet eller i forskellige former for udvalgsarbejde. Der er fx nogle af jer, som har været med i Grøn VK og på den måde taget en række initiativer på skolen. I har fx delt rundstykker ud til dem som kom på cykel og os der kom i bil måtte undvære rundstykkerne og nøjes med den dårlige smag i munden mens vi dukkede os bag bilruden. Nogle af jer har været med til at lave musicalen 'Enden før begyndelsen'. Heri diskuterede I, hvad det var, det begrænsede jeres frihed. "	"NO QUESTION"	NA	.	-1	-1	24360	26670	10	2	2
P44	130	False	experiment	"Jacob sagde 'Hvis frihed er vores mål, så er det eneste vi skal gøre at fjerne alle de ting, der forhindrer os i at gøre hvad vi vil'. Og så diskuterede I hvad det var - om det var skolen eller det var forpligtelsen til hele tiden at være online. I musicalen klippede I kablet til nettet og gjorde oprør mod skolens stramme rammer."	"NO QUESTION"	NA	.	-1	-1	19137	26670	11	2	2
P44	131	False	experiment	"Nogle af jer har siddet i morgensamlingsudvalget og har gang på gang brugt en aften eller en søndag eftermiddag på at forberede morgensamling for resten af skolen. Nogle af jer har arrangeret velgørenhedsløb for de danske hospitalsklovne, en gruppe har arrangeret galla her i skolegården og meget, meget andet. Et af de sidste aftryk, I har sat på skolen, var en flot 3.g-underholdning på jeres sidste skoledag. Det var en god og sjov afslutning på jeres tre år. I har på mange forskellige måder sat jeres præg på skolen. "	"Spørgsmål:\nRefererer taleren til at eleverne har arrangeret fredagsbar?"	2	2	4353	1	24658	26670	12	2	2
P44	132	False	experiment	"Jeg vil sige jer rigtig mange tak for jeres bidrag. Det er dem, der gør Katedralskolen til et helt særligt sted at være."	"NO QUESTION"	NA	.	-1	-1	4123	26670	13	2	2
P44	133	False	experiment	"I forhold til at bruge den personlige frihed til at vælge livsstil og retning, er der rigtig mange valg at træffe: Hvor og hvordan skal I bo? Alene eller sammen med andre? Og hvis det er sammen med andre, er det så at blive hjemme ved forældrene lidt endnu eller flytte sammen med venner eller en eventuel partner? Og hvor skal det være? I Viborg eller en af de store studiebyer – eller i udlandet? "	"NO QUESTION"	NA	.	-1	-1	13430	26670	14	2	2
P44	134	False	experiment	"Hvad skal I bruge tiden på både på kort sigt og længere sigt? Skal man vælge et sabbatår og ud at tjene penge? Eller et sabbatår og ud at rejse? Eller gå i gang med uddannelsen med det samme? Ja det lyder jo overvældende med de alle de spørgsmål, men jeg vil bevæge mig ud på dybt vand og give mit bud på et svar lige om lidt, men inden da vil jeg komme ind på et par punkter mere vedrørende det gode liv – det lykkelige liv."	"NO QUESTION"	NA	.	-1	-1	16488	26670	15	2	2
P44	135	False	experiment	"Et andet vigtigt punkt i forhold til den langvarige lykke er sociale relationer og det at have tillid til hinanden. I mange tilfælde er vi afhængige af hinanden og afhængige af personer vi ikke kender. Christian Bjørnskov siger: 'Tillid og ærlighed belønnes med tillid og ærlighed. Jo længere tilliden strækker sig til andre mennesker desto mere beskyttet er vi mod mange af de bekymringer, som ellers kunne belaste os ..."	"NO QUESTION"	NA	.	-1	-1	18275	26670	16	2	2
P44	136	False	experiment	"Den helt store konklusion er, at andre mennesker er den vigtigste kilde til vores lykke'. Altså vores familie, vores venner, den rigtige partner, et godt netværk og det at indgå i et fællesskab."	"NO QUESTION"	NA	.	-1	-1	5689	26670	17	2	2
P44	137	False	experiment	"De sidste tre år har en væsentlig del af jeres sociale liv foregået på Viborg Katedralskole både i og udenfor timerne, I har været en del af VK-fællesskabet. For mig personligt har det været en fornøjelse at følge jer på sidelinjen og opleve den gode stemning fx til lektiecafe på biblioteket eller ved et gruppearbejde på balustraden eller i skolegården til aftensmad på kollegiet eller til cafe i Kentauerhaven. Det er nogle af de gode minder om jeres årgang, som jeg vil tage med mig. "	"NO QUESTION"	NA	.	-1	-1	25366	26670	18	2	2
P44	138	False	experiment	"Hvis enkelte af jer skulle blive en smule vemodige ved tanken om at det er slut med VK-fællesskabet og at der er nogle af kammeraterne som I måske aldrig ser igen, så vil jeg med Dr. Seuss’ ord sige: 'Græd ikke fordi det er slut, smil fordi det er sket'. Jeg håber og tror, at I har skabt netværk her på skolen, nogen som bliver ved med at være en del af jeres bekendtskabskreds og nogen I altid vil kunne trække på, så I kan tage en del af VK-ånden og VK-fællesskabet med jer."	"NO QUESTION"	NA	.	-1	-1	21459	26670	19	2	2
P44	139	False	experiment	"Det sidste punkt jeg vil nævne i forhold til den langvarige lykke, er uddannelse, arbejde og karriere. Nu står I ganske vist overfor en velfortjent sommerferie, så lige nu er det sikkert vanskeligt at se arbejde og uddannelse som en vej til det gode liv. I den netop overståede læseferie har det været skolen, som har forhindret jer i det gode liv, men vi glæder os jo netop til ferierne fordi de er afbræk fra hverdagen – vi føler, at vi har gjort os fortjent til dem. Arbejde og studier giver identitet og en følelse af at man bidrager til fællesskabet og til samfundet."	"NO QUESTION"	NA	.	-1	-1	22220	26670	20	2	2
P44	140	False	experiment	"Det giver en følelse af at man hører til og at man har betydning. Tænk bare på en undervisningssituation. Den gode time opstår netop når alle er med og deltager. Eller gruppearbejdet, der ikke fungerer, hvis nogen af gruppemedlemmerne bliver hjemme – særligt ikke hvis det er ham eller hende der har notaterne."	"NO QUESTION"	NA	.	-1	-1	11158	26670	21	2	2
P44	141	False	experiment	"Nu får I dagens sidste citat af Christian Bjørnskov. Han siger det på følgende måde: 'Hvis du vil være lykkelig, skal du arbejde med det, du er bedst til – og har mest lyst til ... Valg af uddannelse og karriere er vigtige beslutninger, som kræver omtanke og fordybelse ... Det kræver, at du mærker efter, hvad der vil gøre dig lykkelig ... Hvis du har brug for tid til at finde dig selv og til at tænke over, hvad du gerne vil, er den tid rigtig godt givet ud'."	"NO QUESTION"	NA	.	-1	-1	19967	26670	22	2	2
P44	142	False	experiment	"Mange slår i disse år på tromme for, at alle unge skal vælge uddannelse hurtigst muligt og gennemføre på kortest mulig tid. For nogle af jer er det et godt råd, fordi nogle af jer ved allerede, hvad I vil læse og har planlagt at starte efter sommerferien – og det er fint. Men der er også mange af jer som ikke har besluttet jer endnu eller som af andre grunde har behov for sabbatår. "	"NO QUESTION"	NA	.	-1	-1	16859	26670	23	2	2
P44	143	False	experiment	"Det er der ikke noget galt med. Man kan foretage sig mange fornuftige ting i et eller flere sabbatår: man kan lære meget af at rejse eller være på højskole og meget andet, men også more sig og mærke livet væk fra lektier, afleveringer og eksaminer. For de af jer, der har brug for tid til at finde jer selv og til at tænke over, hvad I gerne vil, er den tid rigtig godt givet ud, bare I sørger for at få jer en uddannelse, når I er rede til det."	"Spørgsmål:\nMener taleren at der kan komme noget godt ud af at tage et sabbatår?"	1	1	5025	1	19478	26670	24	2	2
P44	144	False	experiment	"Nogle gange kan den personlige frihed og det faktum, at man selv skal vælge sin egen vej, også føles som en belastning. Man kan føle, at man så også står alene med ansvaret. Det vil jeg gerne forsøge at bløde lidt op på. Jeg lovede tidligere i min tale, at jeg ville give mit bud på hvad I fremadrettet skal bruge tiden på – det punkt er jeg kommet til nu. Ikke overraskende er mit svar, at det findes der ikke kun ét svar på. Der ikke kun én lykkelig vej til dét gode liv."	"NO QUESTION"	NA	.	-1	-1	21708	26670	25	2	2
P44	145	False	experiment	"For de fleste af os findes der mange veje og mange forskellige mulige versioner af det gode liv. Et kinesiske ordsprog siger: 'Lykke er ikke en destination, men en måde at rejse på' og vær opmærksom på 'at lykken aldrig bliver mindre af at blive delt'."	"NO QUESTION"	NA	.	-1	-1	13533	26670	26	2	2
P44	146	False	experiment	"For det drejer sig for hver enkelt af jer om at vælge én af flere mulige veje. Hav tillid til jer selv og til hinanden og brug jeres netværk. Påvirk vejen mens I rejser, så bliver det til jeres gode liv. Jeg vil ønske jer rigtig god rejse."	"Spørgsmål:\nOpfordrer taleren studenterne til at bruge deres netværk?"	1	1	2020	1	13527	26670	27	2	2
P44	147	False	experiment	"Med disse ord dimitterer jeg jer som studenter fra VK 2016."	"NO QUESTION"	NA	.	-1	-1	1727	26670	28	2	2
