Session_Name_	Trial_Index_	Trial_Recycled_	condition	text	question	expected_key	QUESTION_KEY_PRESSED	QUESTION_RT	QUESTION_ACCURACY	SENTENCE_RT	speechid	paragraphid	counterbalance	LAST_COUNTERBALANCE
P51	1	False	practice	"NY TALE BEGYNDER NU"	"NO QUESTION"	NA	.	-1	-1	4562	1327	-1	0	0
P51	2	False	practice	"Hej alle sammen!"	"NO QUESTION"	NA	.	-1	-1	1144	1327	0	0	0
P51	3	False	practice	"Som I allerede ved, vil vi om lidt tænde for et bål, der vil brænde et skab af – det skab, vi har følt os begrænset af, indelukket i, og som de fleste af os er brudt ud af for at kunne blive lykkeligere."	"NO QUESTION"	NA	.	-1	-1	14311	1327	1	0	0
P51	4	False	practice	"'Men skabe er da ganske praktiske til opbevaring af mangt og meget, ikke sandt?' Jo, opbevaring af værdier, det er rigtigt – men når vi først begynder at sætte spørgsmålstegn ved disse værdier, så føles skabet mere og mere trangt, for det kan ikke rumme vores ideer og følelser mere."	"NO QUESTION"	NA	.	-1	-1	17627	1327	2	0	0
P51	5	False	practice	"'Jamen hvad er der i det skab?' Der er en opfattelse af at kvinder og mænd skal tænke, føle, klæde sig og handle forskelligt – fordi nogle er kvinder og andre er mænd. Kønsroller kalder vi det. Men det rækker faktisk meget længere end bare til roller, vi spiller – rollerne invaderer vores tanker og vores følelser, så vi næsten ikke kan tænke uden for rollen, så længe skabet omslutter os, og i hvert fald først og fremmest føler vi må tage hensyn til dem, der er i skabet..."	"Spørgsmål:\nMener taleren at kønsroller både påvirker hvordan vi handler og tænker?"	1	1	6882	1	27865	1327	3	0	0
P51	6	False	practice	"Når vi endelig bryder ud af skabet og for alvor viser og siger det, der ikke passer i det normative skab, kan vi godt opleve negative reaktioner – men så sandelig også positive – for vi er jo slet ikke alene!"	"NO QUESTION"	NA	.	-1	-1	15839	1327	4	0	0
P51	7	False	practice	"Der er nemlig andre som ligner os mere eller mindre, vi er en broget og mangfoldig flok i alle aldre, hudfarver, kulturelle baggrunde, med og uden handicap, med og uden tro, af forskellig politisk overbevisning, og – vigtigst for os her: af flere forskellige kønsidentiteter og seksuelle orienteringer."	"NO QUESTION"	NA	.	-1	-1	15000	1327	5	0	0
P51	8	False	practice	"Fælles for os er, at vi er en regnbueminoritet i forhold til flertallets skab – men det betyder ikke at majoriteten har ret. Vi vil udefra informere om, at der er andre måder at se tingene på, tilbyde et alternativt syn på livet og verden, som kan hjælpe nogle – især børn og unge – ud af et skab, de mistrives i."	"Spørgsmål:\nMener taleren at minoriteter bør tie med deres verdenssyn?"	2	2	8584	1	18771	1327	6	0	0
P51	9	False	practice	"Lad os brænde skabet med normerne, så vi frigøres fra dem og får retten til at være dem, vi faktisk er!"	"NO QUESTION"	NA	.	-1	-1	10676	1327	7	0	0
P51	10	False	experiment	"NY WIKIPEDIA-ARTIKEL BEGYNDER NU"	"NO QUESTION"	NA	.	-1	-1	2571	202209	-1	14	14
P51	11	False	experiment	"Hvor smiler fager den danske Kyst" eller "Danmarkssangen" er et digt af Johannes V. Jensen. Digtet blev påbegyndt i juni 1925 og udkom første gang i sin helhed med syv strofer 31. oktober samme år. Den kan opdeles i fire dele: De to første strofer har et havtema, de næste to handler om landet, derpå kommer to strofer om oldtiden og arkæologi, og den sidste strofe handler om danskere, der rejser ud.
	"NO QUESTION"	NA	.	-1	-1	25157	202209	0	14	14
P51	12	False	experiment	"Det sangbare digt har været med i Højskolesangbogen siden 12. udgave fra 1933. Allerede inden digtet var helt færdigt kom den første melodi til det, men den mest kendte melodi skrev Oluf Ring i 1935. Som sang er "Nu smiler fager den danske Kyst" indspillet i mere end 60 udgaver. Sangeren Christopher skrev i 2016 en ny melodi til digtet."	"Spørgsmål:\nFindes der flere forskellige melodier til "Hvor smiler fager den danske Kyst"?"	1	1	7665	1	19501	202209	1	14	14
P51	13	False	experiment	"NY WIKIPEDIA-ARTIKEL BEGYNDER NU"	"NO QUESTION"	NA	.	-1	-1	2412	202208	-1	14	14
P51	14	False	experiment	"Lungebetændelse eller pneumoni er en betændelsestilstand i lungerne. Den påvirker især de mikroskopiske luftsække, der hedder alveoler. Sygdommen skyldes som regel en infektion med virus eller bakterier.
Typiske symptomer omfatter hoste, brystsmerter, feber og stakåndethed. Diagnostiske værktøjer er bl.a. røntgen og dyrkning af bakterier fra opspyt. Der findes vacciner, som kan forebygge visse typer lungebetændelse. Behandlingen afhænger af den tilgrundliggende årsag. Lungebetændelser, man mener skyldes bakterier, behandles med antibiotika. Hvis det er en svær lungebetændelse, bliver personen typisk indlagt på hospitalet."	"Spørgsmål:\nBør alle lungebetændelser behandles med antibiotika?"	2	2	11297	1	30601	202208	0	14	14
P51	15	False	experiment	"Hvert år får ca. 450 millioner mennesker lungebetændelse. Det er 7 % af verdens befolkning, og det resulterer i ca. 4 millioner dødsfald. Selvom lungebetændelse i 1800-tallet blev beskrevet som "the captain of the men of death" (dødemændenes anfører), har antibiotika mindsket dødeligheden. Ikke desto mindre er lungebetændelse en stor dødsårsag, især i udviklingslandene, blandt ældre, meget unge og kronisk syge."	"NO QUESTION"	NA	.	-1	-1	18160	202208	1	14	14
P51	16	False	experiment	"NY WIKIPEDIA-ARTIKEL BEGYNDER NU"	"NO QUESTION"	NA	.	-1	-1	1179	202207	-1	14	14
P51	17	False	experiment	"Kong Bhumibol Adulyadej, rama af Thailand (thai: Phumiphon Adunyadet; 1926-2016) var den niende konge af Thailands Chakri-dynasti.
Han var søn af Mahidol Adulyadej, prins af Songkla, og Srinagarindra, og han overtog tronen, da hans bror, kong Ananda Mahidol, døde i 1946. Kong Bhumibol blev formelt kronet i 1950. Bhumibol Adulyadej regerede frem til sin død i 2016, og han var indtil da det længst siddende statsoverhoved i verden samt den længst regerende monark i Thailands historie med en regeringstid på 70 år og 126 dage."	"NO QUESTION"	NA	.	-1	-1	26645	202207	0	14	14
P51	18	False	experiment	"Forbes estimerede hans formue til i 2010 at være på 30 milliarder US-dollars, og han var dermed øverst på bladets liste over de "rigeste kongelige personer". Han var meget populær blandt Thailands befolkning, men han havde også modstandere i visse kredse. Kritikken blev dog holdt nede via nogle af verdens strengeste love om majestætsfornærmelse.
Bhumibol var gift med Sirikit med hvem han fik fire børn, og sønnen Vajiralongkorn efterfulgte ham på tronen."	"Spørgsmål:\nForblev Kong Bhumibol Adulyadej ugift til sin død?"	2	2	6596	1	20259	202207	1	14	14
P51	19	False	experiment	"NY TALE BEGYNDER NU"	"NO QUESTION"	NA	.	-1	-1	1108	10440	-1	6	6
P51	20	False	experiment	"Jeg vil også gerne byde jer velkommen her til årets Erhvervs-Get-Together, hvor vi skal lytte, lære og tale sammen om det erhvervsliv, vi alle på den ene eller anden måde er en del af. Vi har to spændende foredragsholdere med os i dag. De vil tale om lederskab og om fremtidens arbejdsmarked. To emner, der må siges at være mere end relevante for os alle. Og jeg vil bruge anledningen til at komme ind på netop de emner nu, hvor jeg har ordet."	"NO QUESTION"	NA	.	-1	-1	24731	10440	0	6	6
P51	21	False	experiment	"Det blæser ofte en del i Frederikshavn. Sådan er det jo ved kysten. Og af og til rammes vi af modvind. Også i overført betydning. Vi har hørt det før. Gang på gang faktisk. Kommunen står over for en række udfordringer, vi må og skal håndtere. Det er ikke noget nyt. Og det er ikke noget, der kan slå os i jorden, hvis vi står sammen. Der er modvind, om man vil, lokalt."	"NO QUESTION"	NA	.	-1	-1	18690	10440	1	6	6
P51	22	False	experiment	"Der er udfordringer, når vi ser på kommunernes økonomi – også i Frederikshavn Kommune. Der er udfordringer, når vi ser på kommunens demografiske udvikling med færre unge og flere ældre. Der er udfordringer, når vi ser på arbejdsstyrken og særligt alle dem, der står uden for den."	"NO QUESTION"	NA	.	-1	-1	14226	10440	2	6	6
P51	23	False	experiment	"Kigger vi op og ud. Kigger vi længere frem og internationalt, så står vi, vores børn og vores børnebørn – som en del af verdenssamfundet – over for miljømæssige udfordringer af proportioner, der kan være svære helt at begribe. Havstigning, forurening, global opvarmning. Det trækker op til storm ude i horisonten. Et uvejr, som vi ikke kan gå udenom, men som vi må gå igennem. Sammen."	"Spørgsmål:\nMener taleren at forurening er en af de store udfordringer som vi må gå i møde?"	1	1	6824	1	23384	10440	3	6	6
P51	24	False	experiment	"Når et skib rammes af en brandstorm, så kommer det og dets mandskab kun uskadt ind til kysten, hvis kaptajnen bliver på broen og viser vejen gennem vandmasserne. At turde blive på broen, når bølgerne hamrer ned over dækket. Det er lederskab. Lederskab er at stå for det, man tror på, selvom der er modstand. At turde tage de svære beslutninger, som kan have alvorlige konsekvenser, når beslutningerne er nødvendige."	"NO QUESTION"	NA	.	-1	-1	20307	10440	4	6	6
P51	25	False	experiment	"Hvis vores virksomheder skal være konkurrencedygtige og forblive det, hvis vi skal gøre os forhåbninger om at tiltrække flere internationale medspillere på erhvervsfronten, så må og skal vi sikre os adgang til grøn energi. Virkeligheden kræver handling – både for vores egen og kommende generationers skyld. Derfor var det nødvendigt at kæmpe for vindmølle-testanlægget ud for vores kyst. Det projekt er det langt fra alle, som kan se fornuften i her og nu. Men de færreste kan benægte, at det er fornuftigt, hvis vi retter blikket ud og fremad."	"NO QUESTION"	NA	.	-1	-1	26647	10440	5	6	6
P51	26	False	experiment	"Hvis vi kigger fremad, så kan vi nok også godt få øje på fornuften i at satse på et destinationsselskab. Hvis vi vil bevare vores styrkeposition i turismeindustrien og forbedre den, så må vi alliere os med nabokommuner. Vi må sætte vores ambitionsniveau sammen med andre. Når der har været et økonomisk merforbrug i kommunens arbejdsmarkedscenter på mere end 30 millioner kroner, så skal der også tages svære beslutninger. Der skal tages afsked med værdsatte medarbejdere. Det er ikke nemt. Men det skal gøres. Lederskab er at turde gå forrest gennem udfordringerne. Lederskab er at vise vejen."	"NO QUESTION"	NA	.	-1	-1	31359	10440	6	6	6
P51	27	False	experiment	"Jeg håber, at I vil være med til at vise vejen. Jeg tror på, at I tør gå forrest, når det gælder de af vores medborgere, som står uden for arbejdsmarkedet. Nej, det er ikke alle, der vil. Og det er ikke alle, der kan. Men der er mange med uudnyttede evner i vores kommune, som drømmer om at få det, I har. Et job at stå op til. En værdig plads i samfundet med kollegaer. Det at drikke dagens første kop kaffe på arbejdspladsen og se frem mod de opgaver, den byder på. Opgaver, der giver mening."	"NO QUESTION"	NA	.	-1	-1	25549	10440	7	6	6
P51	28	False	experiment	"Under valgkampen sagde direktøren for TDC noget, der gjorde mig glad. Han sagde, at landets virksomheder skal tage et samfundsansvar – et socialt ansvar. Han sagde, at de, virksomhederne, er en del af samfundet og skal tage deres del af byrden. For et samfund er først og fremmest et fællesskab."	"NO QUESTION"	NA	.	-1	-1	12598	10440	8	6	6
P51	29	False	experiment	"Det gør mig glad og stolt, når Danish Crown i Sæby ansætter 97 flygtninge og indvandrere, uddanner dem og giver dem et eksistensgrundlag. Det gør mig glad, når man hos M.A.R.S. her i Frederikshavn forpligter sig til at tage imod langtidsledige, til at lære dem op og vise dem ind på arbejdsmarkedet. Det gør mig glad, når vores turisthus råber sine medlemmer op og opfordrer dem til at kontakte Frederiksavn Kommune, når de mangler hænder."	"NO QUESTION"	NA	.	-1	-1	19476	10440	9	6	6
P51	30	False	experiment	"Vi er her for at hjælpe jer. Og vi håber, I vil hjælpe os og de af vores borgere, der har brug for en kyndig hånd. Move North har i de to år, rekrutteringsindsatsen har eksisteret, skaffet 50 nye specialister til vores virksomheder. Tag fat i Move North, når I mangler ingeniører, maskinmestre og andre teknisk kyndige. Arbejdsmarkedscenteret kan hjælpe jer med at skaffe resten. Tag fat her, når I mangler råstyrken. Når I mangler dem, der kan løfte kabeltromlerne, groft sagt. "	"NO QUESTION"	NA	.	-1	-1	25335	10440	10	6	6
P51	31	False	experiment	"Støt op om kampen for at få alle med. Så styrker I hele kommunen, og så styrker I jeres virksomhed. Jeg tror på, at man bliver stærkere af at hjælpe dem, der er svagere. Så styrker vi også det billede, vi viser resten af landet, når vi inviterer pressen hertil for at fortælle om vores indsats. Vis vejen for dem, der ikke har fundet den selv. Så vil vi gå sammen med jer."	"NO QUESTION"	NA	.	-1	-1	19259	10440	11	6	6
P51	32	False	experiment	"Nok er der udfordringer. Nok har vi en kamp, vi skal vinde. Men vores historie viser, at vi har en evne til at overleve. Det ligger i vores DNA. Værfter og andre virksomheder lukker. Kriser rammer os. Men vi rejser os. Altid. Vi står igennem og vi bliver stærkere. Vi står gennem stormen. Vi lader den ikke blæse os omkuld. Og vi har også tænkt os at overleve nu. Vi har tænkt os at overleve sammen. Der er allerede kommet god vind i sejlene."	"NO QUESTION"	NA	.	-1	-1	22223	10440	12	6	6
P51	33	False	experiment	"NY TALE BEGYNDER NU"	"NO QUESTION"	NA	.	-1	-1	2435	17526	-1	6	6
P51	34	False	experiment	"Kære studenter\nI dag er en festdag! I dag har jeg fornøjelsen af at skulle dimittere jer som studenter fra Gribskov Gymnasium, men inden vi når så langt, har jeg muligheden for at få jeres fulde opmærksomhed og give jer et par bevingede ord med på vejen."	"NO QUESTION"	NA	.	-1	-1	15336	17526	0	6	6
P51	35	False	experiment	"I har nu været på Gribskov Gymnasium i 3 år – jeg har kun været her et halvt år, så jeg kender ikke jer alle sammen så godt, men jeg vil gerne sige tusind tak til jer alle sammen for den imødekommende og positive modtagelse, I har givet mig."	"NO QUESTION"	NA	.	-1	-1	13349	17526	1	6	6
P51	36	False	experiment	"I har de sidste tre år været med til at skabe en skole med en særlig rummelighed og sammenhold. Undervejs i de tre år er I blevet udfordret fagligt: I har måtte kæmpe jer vej igennem myriader af tekster og utallige skriftlige opgaver, som I nu kan se tilbage på og tænke på som delelementer i den stærke faglighed, I nu besidder. I har været aktive og engagerede både i den daglige undervisning og i skolens øvrige liv: I har peppet hverdagen op med kreative indslag til morgensamling, debatteret med iver til elevrådsarrangementer og mange af jer har hvert år i januar kæmpet for at få skolekomedien klar til premieren."	"NO QUESTION"	NA	.	-1	-1	35832	17526	2	6	6
P51	37	False	experiment	"I har været elever på et lokalt gymnasium, men I har også fået globalt udsyn. Mange af jer har været på besøg hos vores partnerskoler rundt om i verden og 5 af jer skal til Kina i sommerferien for at undervise i engelsk på summer school. "	"NO QUESTION"	NA	.	-1	-1	11345	17526	3	6	6
P51	38	False	experiment	"I den sidste måned har I svedt over skriftlige og mundtlige eksamener og jeres eksamensresultater viser, at I har suget fagligheden til jer og har fået stort udbytte af undervisningen – det skal I være stolte over og glade for."	"NO QUESTION"	NA	.	-1	-1	11289	17526	4	6	6
P51	39	False	experiment	"Som studenter fra Gribskov Gymnasium har I fået en faglig uddannelse af meget høj kvalitet. I har også (uden måske altid at opdage det) fået en helt særlig almendannelse. Faglighed og almendannelse går hånd i hånd. Almendannelse betyder for mig, at man ved, at man ikke ved alt, men at man er vidende om verdens mangfoldighed og at man er interesseret i den. Almendannelse er også, at man kan huske særlige faglige begreber (uden nødvendigvis at kunne huske alle deltaljerne)."	"Spørgsmål:\nEr dette en tale for studenter fra Søndersø Gymnasium?"	2	1	6841	0	21470	17526	5	6	6
P51	40	False	experiment	"Måske vil I altid huske begreber som integraler og vektorer. Måske kan I i søvne genkalde jer det periodiske system. Måske vil I bære rundt på brudstykker af litteratur, som f.eks. strofer fra 9. Sang i Homers Iliaden, så som: 'Ham gensvarede Achilles den helt med det hurtige fodtrin: Ætling af Zeus! Leartes’s Søn! Odysseus du snilde! Bladet fra mund jeg tage nu bør frimodig, og sige, hvad jeg mener og hvad der forsand fuldbyrdet skal vorde,'. Eller måske vil den første linje i Allen Ginsbergs klassiske digt 'Howl' for altid være indprentet i jeres hukommelse: 'I saw the best minds of my generation destroyed by madness, starving hysterical naked'. "	"NO QUESTION"	NA	.	-1	-1	30065	17526	6	6	6
P51	41	False	experiment	"Nu ved jeg godt, at litteratur ikke læses som fornøjelse af alle unge i dag, eller som én af jer skriver i den skriftlige danske eksamensopgave fra den 22. maj: '... på gymnasierne bliver eleverne tvunget – ja, de fleste unge mennesker mener faktisk, at det er tvang – til at læse forskellige litterære klassikere...”. Jeg tror, at hvis ikke I var blevet 'tvunget' til at få udfordret jeres horisont både litterært, fagligt og videnskabeligt – så ville I ikke have fået en almendannelse. I kom ind i på Gribskov Gymnasium som elever og I går ud som studerende besiddende en helt unik kombination af faglighed og almendannelse, som netop kendetegner studenter fra danske gymnasier."	"NO QUESTION"	NA	.	-1	-1	26619	17526	7	6	6
P51	42	False	experiment	"Jeg vil benytte lejligheden til at opfordre jer til nu, når I forlader gymnasiets trygge rammer at kaste jer ud i livet; I skal opleve verden, prøve jer selv af, begå fejltrin og lære af dem. Det kan virke skræmmende for måske ved I slet ikke, hvad I gerne vil prøve – og det er helt ok ikke at vide det. Men hvis I bare er nysgerrige, så I har muligheden for at prøve mange forskellige ting – nyd det!"	"NO QUESTION"	NA	.	-1	-1	18651	17526	8	6	6
P51	43	False	experiment	"Fra alle sider får I tudet ørene fulde af, at I skal skynde jer at komme videre i uddannelsessystemet – I får (igen og igen) at vide, at I skal vælge rigtigt første gang. Sabbatår italesættes som 'spildtid'. I får at vide at det maksimum er 2 år, I må være væk fra det etablerede uddannelsessystem (jeg var 'væk' fra det etablerede uddannelsessystem i 5 år, hvor jeg lavede gøgl og teater, men det er da gået ok sidenhen). I vil i fremtiden blive mødt af flere ord som Produktivitetskommission og Fremdriftsreform. Den slags ord brugt i uddannelsesverdenen beskriver tiltag, som har til formål at få jer hurtigere igennem uddannelsessystemet. Og ydermere så må det ikke være sjovt, men det skal være hårdt at uddanne sig. Men hårdt og sjovt er ikke modsætninger. "	"NO QUESTION"	NA	.	-1	-1	41525	17526	9	6	6
P51	44	False	experiment	"Det at kæmpe for noget, det at arbejde fagligt med svært stof i et fag er (eller bør være) sjovt og stimulerende og bør skabe nysgerrighed. Jeg håber, at I vil huske jeres tid her på Gribskov Gymnasium som nogle hårde, men gode og sjove år. Jeg tror på, at hvis man trives og er glad for det man laver, så lærer man mere – det ene udelukker ikke det andet. Og det skal I holde fast i uanset, hvad I måtte vælge at lave fremover."	"NO QUESTION"	NA	.	-1	-1	20939	17526	10	6	6
P51	45	False	experiment	"Hvis I ved, hvad I vil studere, så kast jer ind i de videregående studier. Hvad enten det er korte, mellemlange eller lange uddannelser, I vælger, så venter der mange gode oplevelser og udfordringer. Tag med studiet ud i verden (det er ikke kun muligt at rejse i et sabbatår – husk det). Hvis I overhovedet ikke aner, hvad I vil være, eller hvis I bare er lidt i tvivl om, hvad I gerne vil, så vil jeg ikke anspore jer til at skynde jer. I må gerne tage det stille og roligt. For det kan også være godt at gøre noget langsomt. Jeres forældre har måske sagt til jer at 'det er sundt at kede sig' – og det er der en vis sandhed i. I kunne f.eks. bare udfordre jer selv: slukke mobil og Facebook en enkelt dag, og se hvad der så sker uden konstante digitale forstyrrelser."	"NO QUESTION"	NA	.	-1	-1	36383	17526	11	6	6
P51	46	False	experiment	"Måske kunne der ske det, at I fik stoppet op og tænkt over, hvad I egentlig vil. Hvis I ikke ved, hvad I brænder for, så tag jer tid til at finde ud af det - for selv om det kan gøre vejen længere og måske langsommere, end det der forventes af jer, så fører det at gøre noget, man brænder for, altid til uventede nye muligheder. Intet af det I kommer til at opleve, må I betragte som 'spildtid'. I suser måske glade og fornøjede igennem det etablerede uddannelsessystem og ender med en ph.d.-stilling på et internationalt universitet, men det kan også være, at I tager en omvej og kommer til at klippe får i Australien, bliver vikarer på folkeskoler, tager et par år i Netto og så bliver globetrottere og rejser verden rundt."	"NO QUESTION"	NA	.	-1	-1	33471	17526	12	6	6
P51	47	False	experiment	"Måske får I et par sæsoner som skibumser i alperne, eller måske tager I på højskole og spiller musik, maler, laver teater og får – som de siger i reklamen - venner for livet. Uanset hvad I gør, vil I altid få erfaringer (både gode og dårlige), som I kan tage med jer."	"NO QUESTION"	NA	.	-1	-1	12637	17526	13	6	6
P51	48	False	experiment	"Jeg vil nu tale om to begreber, som det for mig er vigtigt, at I altid holder jer for øje; uanset, hvad I måtte komme til at lave: hvad enten I læser videre med det samme eller senere; hvad enten I skal arbejde eller rejse; hvad enten I har en helt klar plan for fremtiden eller overhovedet ikke aner, hvad I skal. Det ene begreb er 'glæde' og det andet begreb er 'mod', og disse to begreber er for mig at se tæt forbundne."	"NO QUESTION"	NA	.	-1	-1	19144	17526	14	6	6
P51	49	False	experiment	"Begrebet 'glæde' beskriver en værdi, som I selv skal finde ud af at definere. Det som giver mig 'glæde”, er ikke nødvendigvis det, som giver jer 'glæde'. I skal undersøge, hvornår I føler 'glæde' og kæmpe for, at I får så meget 'glæde' i jeres liv som overhovedet muligt. Det gælder både i det daglige og på den lange bane. Find ud af hvad der gør jer glade, tænk over, hvordan I kan dyrke dette og overvej, hvordan jeres videre færd ud i uddannelsessystemet og livet kan understøtte det, som I selv definerer som 'glæde'."	"NO QUESTION"	NA	.	-1	-1	24062	17526	15	6	6
P51	50	False	experiment	"At arbejde med det som giver jer 'glæde”, kræver 'mod'. 'Mod' defineres i Den Danske Ordbog som 'mental eller moralsk styrke til at handle eller tale i en situation der kan være til fare eller skade for én selv'. Det vil sige at 'mod' kræver, at man tør 'gøre' eller 'sige' noget farligt. Etymologisk kommer ordet 'mod' fra oldnordiske ord for 'vrede'. Der ligger altså i ordet en særlig energi, en følelse og et engagement. Dette genfinder vi i det engelske ord for mod: 'courage', som kommer af det franske ord 'courage', der betyder 'hjerte, de inderste følelser, temperament'. 'Mod' udtrykker altså en indre styrke; det er en vilje til at ville noget. Ofte ville vi nok ikke tænke, at det kræver 'mod' at søge og dyrke 'glæde', eller for at sige det på en anden måde: at søge de 'gode' begivenheder."	"NO QUESTION"	NA	.	-1	-1	33342	17526	16	6	6
P51	51	False	experiment	"Men filosoffen Ole Fogh Kirkeby giver os denne mulighed, når han skriver: 'Måske er det i sidste instans de gode begivenheder, der kræver mere mandsmod?' (Begivenhedsledelse og Handlekraft, 2006, s 15). I skal altså turde se verden direkte i øjnene og turde tro på det gode og det som giver jer 'glæde'. Derved udviser I det, som Ole Fogh Kirkeby kalder 'handlekraft'. Og dette er kun muligt, hvis I ved, hvor I selv står. Det er kun muligt, hvis I ved, hvad der er vigtigt for jer og for jeres liv."	"NO QUESTION"	NA	.	-1	-1	18254	17526	17	6	6
P51	52	False	experiment	"Men at finde ud af det er ikke let, eller som en anden filosof, Simon Krohn, siger det: 'Det kan lyde så nemt, når man taler om at følge sit hjerte, men når det bliver konkret, og du skal gøre det i praksis, er det sjovt nok skræmmende. Det er faktisk tankevækkende, at det kan være lige så skræmmende at følge sit hjerte og gøre det, man ønsker allerdybest, som det er at se sine mørkeste dæmoner i øjnene.' (Nærmere Noget, 2013, s. 14). Det er altså ikke let at gøre det, man gerne vil. Det kræver mod, og det skal I huske. Bare fordi man godt kan lide noget, er det ikke enkelt at gøre det. Og ydermere vil I opleve, at det, der er vigtigt for jer, ikke er en statisk størrelse – det vil ændre sig over tid og derfor kræver det 'gode' kontinuerlig opmærksomhed."	"Spørgsmål:\nHenviser taleren til en bog der hedder 'Nærmere Ingenting'?"	2	1	6852	0	29703	17526	18	6	6
P51	53	False	experiment	"Når I ved, hvor I selv står (nu), hvad der giver jer glæde (nu), og I har modet til at følge det, så vil I også lettere kunne forstå, hvor andre mennesker står, og hvad der giver dem glæde og er vigtigt for dem. Med 'glæde' og 'mod' som pejlemærker er jeg derfor sikker på, at I hver især også altid vil kunne fortsætte med at skabe og deltage i særlige sammenhold (hvor I end kommer). Sammenhold som forhåbentlig bliver lige så stærke som det sammenhold, I været med til at skabe på Gribskov Gymnasium, og som er medvirkende til at skabe den helt særlige stemning (eller 'ånd', hvis vi skal være lidt højtragende), som jeg som udefrakommende med det samme oplevede var et særkende for Gribskov Gymnasium."	"Spørgsmål:\nMener taleren at sammenhold er et særkende for Gribskov Gymnasium?"	1	1	5988	1	29947	17526	19	6	6
P51	54	False	experiment	"Jeg håber, at I med glæde og mod vil udvise rummelighed overfor andre mennesker og sørge for ikke kun at tage hånd om jer selv, men også om alle de mennesker, som I endnu ikke kender, mennesker som I kommer til at rejse, studere, arbejde og leve sammen med."	"NO QUESTION"	NA	.	-1	-1	9460	17526	20	6	6
P51	55	False	experiment	"Undervejs i jeres liv vil I måske fare vild. I vil måske opleve det som den amerikanske kunstner William Fox har kaldt 'cognitive dissonance in isotropic spaces' (Macfarlane, The Old Ways, 2013, s.9), hvilket kan oversættes til følelsen af at fare vild i rum, der tilsyneladende ser ens ud i alle retninger. Denne følelse kan man have når man står i en ørken med sand i alle retninger eller er fanget i tåge i bjergene. Men jeg forestiller mig også at det kan være den følelse, I står med nu, hvor I har alle muligheder og alle muligheder måske ser ens eller lige gode ud. Hvad vej I går, er op til jer. Det kan være godt at fare lidt vild og det vil give jer en ballast, som I først opdager senere."	"Spørgsmål:\nRefererer taleren til William Fox?"	1	1	3116	1	29642	17526	21	6	6
P51	56	False	experiment	"For at komme videre fra gymnasiet skal I altså ud at gå på egen hånd. Jeg vil anbefale jer helt bogstaveligt at gå – det er en aktivitet, som altid fører til noget nyt, hvis I blot husker jeres nysgerrighed og begiver jer ud i det rum, der lige nu tilsyneladende ser ens ud i alle retninger. Så vil alle veje føre til nye steder, ny viden, nye oplevelser og nye erfaringer. I sin glimrende bog The Lost Art of Walking skriver forfatteren Geoff Nicholson således: 'Moderne litteraturteori ser en lighed mellem at gå og at skrive: en gåtur indskriver sig i rum på samme måde som ord indskriver sig i en tekst."	"NO QUESTION"	NA	.	-1	-1	25891	17526	22	6	6
P51	57	False	experiment	"Michel De Certeau skriver 'Handlingen at gå ... er fodgængerens tilegnelse af det topografiske system: det er en særlig udlevelse af rummet ... og det implicerer relationer mellem differentierede positioner'. Jeg synes at dette er en smart måde at sige, at det at gå er en måde at gøre verden til vores egen, og det at skrive er en anden – en ide der slår mig som uafviseligt sand' (The Lost Art of Walking, 2011, s. 33, min oversættelse)."	"NO QUESTION"	NA	.	-1	-1	18826	17526	23	6	6
P51	58	False	experiment	"I går nu ud af gymnasiet. I skal gå ud og gøre verden til jeres helt egen. Skridt for skridt skal I bevæge jer fremad – ikke altid i lige linjer, men måske ad om- og vildveje. Jeres pejlemærker både helt konkret på bjergstien, skovvejen, grusvejen, sandstranden, landevejen, fortovet og gågaden og i overført forstand i uddannelsesverdenen, arbejdslivet og privatlivet skal være 'mod' og 'glæde'. Og husk altid at uanset, hvilken vej I vælger at gå, vil I hele tiden tilføje nye lag til det solide fundament af faglighed og almendannelse, som I har fået her på Gribskov Gymnasium. I har nu taget det sidste skridt i gymnasiet – til det vil jeg blot sige: Godt gået!"	"NO QUESTION"	NA	.	-1	-1	30170	17526	24	6	6
P51	59	False	experiment	"Og med disse ord dimitterer jeg jer som studenter fra Gribskov Gymnasium 2014."	"NO QUESTION"	NA	.	-1	-1	5206	17526	25	6	6
P51	60	False	experiment	"NY TALE BEGYNDER NU"	"NO QUESTION"	NA	.	-1	-1	1014	1125	-1	10	10
P51	61	False	experiment	"Tak for invitationen til at komme og tale på denne dejlige og specielle aften.\nSkt. Hans aften er speciel - vi fejrer lyset med bål, sange og samvær. Vi samles på tværs af de ting, der ellers nok kan dele os op til hverdag. Vi synger vort fædrelands sange. Vi lytter til hinanden, taler med hinanden. Glæder os over de unge, som har gjort deres uddannelse færdige - de springer ud. Nogle er færdige med folkeskolen og skal videre efter sommerferien på en ungdomsuddannelse. Andre er blevet studenter eller svende. De har gjort, hvad vi forventer af dem: gjort sig dygtigere, læst, arbejdet med stoffet, fået indsigt og viden, dannet sig som mennesker i samspillet med deres undervisere og med hinanden. De er så klar!"	"NO QUESTION"	NA	.	-1	-1	31814	1125	0	10	10
P51	62	False	experiment	"Hvad er det så for et land, som de nu for alvor begynder at tage medansvar for? Hvad er det for et land, som vi står midt i? Det er et land, som er udfordret. Vi er udfordret. Og det gælder både økonomisk og i vores forståelse af, hvem vi er i forhold til vores omverden - også vores nære naboer."	"Spørgsmål:\nMener taleren at Danmarks økonomi er udfordret?"	1	1	5819	1	15267	1125	1	10	10
P51	63	False	experiment	"Økonomisk står vi i en situation, hvor opbygningen af gæld og kommende mangel på arbejdskraft nok er blevet mindre (på grund af aftalen om højere pensionsalder og afvikling af efterløn). Men vi stifter stadig gæld hver eneste dag. Mange af de unge, som netop har gjort deres uddannelse færdig, vil opleve, at de ikke kan finde et job. Det halter med at skabe jobs. Virksomhederne flytter deres produktion eller finder nye underleverandører i andre lande, hvor de også er dygtige og omkostningerne mindre. Udfordringen er med andre ord: Hvad skal vi leve af?"	"NO QUESTION"	NA	.	-1	-1	22698	1125	2	10	10
P51	64	False	experiment	"Der er mange tekniske svar på spørgsmålet om, hvad vi skal leve af. Men der er også et svar, der ikke handler om teknik. Det handler om mennesker. Om at vi som mennesker skaber forandringer gennem den måde, vi lever på."	"NO QUESTION"	NA	.	-1	-1	8023	1125	3	10	10
P51	65	False	experiment	"Danmark har været udfordret så mange gange før. Eksempelvis da prisen på korn faldt og smørret havde for dårlig kvalitet. Ingen havde alene råd - eller mælk nok for den sags skyld - til datidens nyeste teknologi: Centrifugen. I stedet for at den rigeste alligevel købte den og gjorde andre til sine underleverandører, fandt de på noget andet. De fandt på andelsbevægelsen. De lavede en forening, hvor hver mand havde sin stemme, og hvor man afregnede efter, hvor meget mælk man leverede. Alle havde lige indflydelse, men det kunne betale sig at levere mere."	"Spørgsmål:\nFik et medlem i andelsbevægelsen flere stemmer af at levere mere mælk?"	2	2	8156	1	24752	1125	4	10	10
P51	66	False	experiment	"De opfandt ikke centrifugen, men de opfandt en genial måde at organisere sig på, så de virkelig fik gavn af den nye teknologi. Det blev ikke kun til andelsmejerier. Det blev til brugsforeninger og slagterier, minkavl og vindmøllelaug. Det blev til et Danmark præget af bevægelser og foreninger. Nok med stærke formænd og -kvinder, men frem for alt med stærke medlemmer. Fordi det gør en forskel, når man er med til at bestemme."	"NO QUESTION"	NA	.	-1	-1	19243	1125	5	10	10
P51	67	False	experiment	"I 1882, da andelsmejeriet åbnede, havde vi haft demokrati i knap 30 år. Jeg tror, at grunden til at de fandt på det, var demokratiet. Det var jo sådan set demokrati, når der er gensidig respekt. Når hvert menneske tæller lige meget. Når man må sige, hvad man vil og synes at andre skal have og bruge samme rettighed."	"NO QUESTION"	NA	.	-1	-1	14349	1125	6	10	10
P51	68	False	experiment	"Det smør, der kom ud af andelsmejeriets centrifuge, var af god kvalitet. Så god kvalitet, at det kunne sælges uden for landet grænser. Og det har vi så i stort og småt levet af siden. Danmark er en lille, åben økonomi, og vi lever af, at andre vil købe vores varer. Og de varer er der mange af - fødevarer i alle afskygninger, vindmøller, spil og film, design og maskiner. Vi er blevet rige af at butikken har åben. Ikke af at den lukker. Hvem kan købe ind i en lukket butik? Danmark skal være et sted, hvor der er værd at komme - og som er værd at rejse ud fra for at få nye erfaringer, indsigter og ideer med hjem."	"NO QUESTION"	NA	.	-1	-1	29142	1125	7	10	10
P51	69	False	experiment	"Ligesom problemerne i vores moderne verden er grænseoverskridende, så er mulighederne det også. Og grænseoverskridende muligheder får vi mest ud af, hvis vi bruger dem sammen. Jeg ved godt, at det en meget lavtflyvende erfaring, men den er stadig rigtig: Sammen er vi stærke. Og styrken kommer ikke af at være ens, men af at kunne noget forskelligt, så vi kan meget mere sammen, end vi kunne hver for sig."	"NO QUESTION"	NA	.	-1	-1	19815	1125	8	10	10
P51	70	False	experiment	"Det er jo ingen kunst at sige, hvad man vil på en øde ø. Du kan råbe eder, forbandelser og håne lige så tosset du vil. Hvis ingen hører det, har det ingen konsekvenser. Du er bare alene med dit skrigeri. For at noget bliver en værdi - noget vi synes er vigtigt - så kræver det, at vi er flere - at vi laver et samfund. Du er ikke fri, hvis du er alene. Så er du bare alene. Først når du lever sammen med andre, kan du afprøve, om værdierne er noget, der bliver til virkelighed i hverdagen."	"Spørgsmål:\nKan man - ifølge taleren - være fri hvis man er alene?"	2	2	7133	1	23994	1125	9	10	10
P51	71	False	experiment	"Det er jo åbenlyst ikke noget ved ytringsfrihed, hvis der ikke er nogen, der lytter. Der er ikke noget ved friheden til at samle sig, hvis der ikke er nogle at samle sig med. Det er i samspillet med andre mennesker - og især i samspillet med dem, der har magten - at frihed kan blive til levende hverdag."	"NO QUESTION"	NA	.	-1	-1	15187	1125	10	10	10
P51	72	False	experiment	"For en uge siden var jeg også på Bornholm: til Folkemødet i Allinge. Der var taler, debatter, diskussioner, blev stillet spørgsmål og kommenteret. Der blev mumlet i krogene, hvisket ved siderne og grinet og leet. Der var jordbær på tilbud i Brugsen, en kajkant at sidde og spise dem på og mennesker at være sammen med. Det var en stor og god oplevelse - en demokratisk oplevelse: Ytringsfriheden blev brugt, forsamlingsfriheden, fraværet af censur - og den grundlæggende, gensidige respekt var til stede. Det har taget os mange, mange år at opbygge vores demokrati - det tog os over 60 år fra de første mænd fik stemmeret til kvinderne kom med."	"NO QUESTION"	NA	.	-1	-1	28866	1125	11	10	10
P51	73	False	experiment	"I går var jeg i Benghazi. I Libyens næststørste by, hvor det nationale overgangsråd har sæde - hvor Gadaffi har tabt, og oprørerne vundet. Udenrigsministeren havde sammensat en delegation af repræsentanter for hvert parti. Vi var dernede netop for at tale med de mennesker, som vil tage ansvar for overgangen til et nyt Libyen. Et demokratisk og frit Libyen."	"Spørgsmål:\nEr Benghazi Libyens største by?"	2	2	3845	1	18144	1125	12	10	10
P51	74	False	experiment	"Vi mødte hvad der svarede til os selv: Medlemmer af parlamentet. Vi stillede dem spørgsmål, og de svarede - åbent og nogle gange søgende og meget oplysende - på spørgsmål om, hvordan det skal være efter Gadaffi, om kvinders stilling og om de indefrosne midler, som de ikke har adgang til. Og de spurgte os: 'Vil I hjælpe os med at hjælpe de kvinder, som systematisk er blevet voldtaget af Gadaffis styrker? Hvad tænkte I, da I hørte om vores revolution?' Da Gadaffi havde tabt, var der ingenting. Intet. Alt har de skullet bygge op selv. Og det er de i gang med."	"NO QUESTION"	NA	.	-1	-1	24211	1125	13	10	10
P51	75	False	experiment	"Der var en, der spurgte dem, om det kan lade sig gøre: 'Kan Libyen blive frit og demokratisk?' Det var formanden Jalil, der svarede. Han sagde nogenlunde dette her: 'Da der var krig i Jugoslavien, kom Danmark med til EM på afbud. I var undervurderede, og det var jo sådan set ikke meningen, at I skulle med. Jeg heppede på jer. I spillede. Og vandt! Der kan ske uventede og utrolige ting,' sagde han og smilede. Der kan ske uventede og utrolige ting."	"NO QUESTION"	NA	.	-1	-1	17940	1125	14	10	10
P51	76	False	experiment	"I deres mediecenter holder de blandt andet en Facebook-side med internationale nyheder om Libyen ved lige. Finder de en historie på engelsk, så oversætter de den til arabisk, så langt, langt flere kan få adgang til den. Væggene var fyldt med karikaturtegninger af Gadaffi. 'Vi vidste ikke, at nogen kunne det,' sagde én af dem, der fulgte os rundt. 'Med vores revolution kom karikaturerne også.' Pludselig kunne man ytre sig."	"NO QUESTION"	NA	.	-1	-1	18354	1125	15	10	10
P51	77	False	experiment	"Jeg spurgte en ung pige, hvad hun lavede. Hun var i gang med at finde ud af, hvilke foreninger, der var dannet rundt omkring. Hun havde ikke vidst, hvad en forening var. For det var jo ikke tilladt - og der var 17 efterretningstjenester til at tjekke, at man ikke lavede foreninger. De er ligesom os. De ønsker sig frihed, demokrati, et sundhedsvæsen, der fungerer."	"NO QUESTION"	NA	.	-1	-1	16722	1125	16	10	10
P51	78	False	experiment	"Vi har og vi har haft vores kampe i Danmark. Det er deres kamp. Vi kan hjælpe og støtte, men det er deres kamp for det Libyen, som de gerne vil have. Jeg tror, at de vil vinde den, og at de langsomt, men sikkert, vil opbygge et demokrati. I deres land."	"NO QUESTION"	NA	.	-1	-1	12889	1125	17	10	10
P51	79	False	experiment	"Der er også mange, mange forskelle mellem borgerne i ørkenlandet, hvor der kun vokser noget dér, hvor der bliver vandet – og her, hvor der bliver 'vandet' hele tiden. Men i stedet for at remse forskellene op og bruge dem som byggesten i muren mellem dem og os – så kan vi se på det, som vi er fælles om: Menneskerettigheder fordi vi er mennesker og er født lige og frie."	"NO QUESTION"	NA	.	-1	-1	17001	1125	18	10	10
P51	80	False	experiment	"'Menneskerettigheder' – det lyder højstemt og abstrakt, selv for en tale ved Skt. Hans. Men det er hverdag. Det er den gensidige respekt. Friheden til at sige, hvad man mener. Friheden til at være sammen med dem, man vil. Retten til at leve sammen med ens familie."	"NO QUESTION"	NA	.	-1	-1	11112	1125	19	10	10
P51	81	False	experiment	"Så nok er Danmark udfordret. Men det har vi været før. Og det kan vi løse - hvis vi gør det sammen og med forskellene mellem os som styrken. Og når vi kan samles om bålet, kan vi også samles om de problemer, som vi kan løse i fællesskab. Der er ikke længe til valget, men i aften samles vi uden om de politiske skel for at fejre sommeren, lyset og samværet."	"NO QUESTION"	NA	.	-1	-1	14292	1125	20	10	10
P51	82	False	experiment	"Tak for ordet."	"NO QUESTION"	NA	.	-1	-1	1238	1125	21	10	10
P51	83	False	experiment	"NY TALE BEGYNDER NU"	"NO QUESTION"	NA	.	-1	-1	2248	1317	-1	10	10
P51	84	False	experiment	"Vi har to kriser: en økonomisk krise og en klima- og ressourcekrise. De skal løses sammen. Lige nu står vi på en brændende platform: Kina sidder på markedet for ressourcer som blandt andet sjældne mineraler og en lang række andre værdifulde og kritiske ressourcer, samtidig med at både ressourceknaphed og -forbrug stiger."	"NO QUESTION"	NA	.	-1	-1	11606	1317	0	10	10
P51	85	False	experiment	"EU's vision for 2020 er at 50 procent af husholdningsaffaldet genanvendes. Vores fælles vision for 2020 skal være endnu mere ambitiøs – og stile mod at deponering stort set ophører og genanvendelsen stiger markant. Regeringens 50 nye millioner til miljøteknologi på finansloven skal understøtte udviklingen. I skal bidrage med løsninger! Bedre ressourceforvaltning og affaldsforebyggelse er nogle af nøgleordene."	"NO QUESTION"	NA	.	-1	-1	18460	1317	1	10	10
P51	86	False	experiment	"Når affaldet genanvendes, skal det gerne blive til produkter af høj kvalitet, som forbrugerne vil købe. Vi skal med andre ord undgå downcycling og ikke forringe kvaliteten af materialerne. Målet er at recirkulere mange flere af de værdifulde ressourcer, der findes i affaldet."	"NO QUESTION"	NA	.	-1	-1	13667	1317	2	10	10
P51	87	False	experiment	"Som for eksempel når affald af Rockwool i Danmark kan blive indsamlet og genbrugt til ny Rockwool. På samme tid får man en billig råvare, der kan erstatte nye råvarer, og man er fri for at skulle deponere affaldet. Begge dele sparer kloden for udledning af en masse CO2."	"NO QUESTION"	NA	.	-1	-1	13202	1317	3	10	10
P51	88	False	experiment	"Det er ikke nok kun at overveje energiindholdet i affaldet – der findes mange andre værdifulde og udtømmelige ressourcer, som ikke bør gå til spilde. Eksempelvis metaller og sjældne jordarter som anvendes i mobiltelefoner og pc'er. Både europæiske og nationale initiativer er nødvendige for at øge ressourceeffektiviteten i Danmark og EU. Derfor bliver et af de vigtige punkter på dagsordenen for det danske formandskab også at arbejde med Ecodesign-direktivet. Det skal ikke bare begrænse produkternes energiforbrug, men også designe produkterne, så det er lettere at recirkulere ressourcerne."	"NO QUESTION"	NA	.	-1	-1	23929	1317	4	10	10
P51	89	False	experiment	"På EU-niveau ved vi, at: 3⁄4 af EU's påvirkning af miljøet stammer fra fødevarer og drikkevarer, privat transport og boliger. Langt det meste af produkternes miljøpåvirkning bestemmes i designfasen."	"NO QUESTION"	NA	.	-1	-1	10175	1317	5	10	10
P51	90	False	experiment	"Hvordan kommer så vi videre? Et væsentligt skridt er Kommissionens 'Køreplan til et ressourceeffektivt Europa'. Det overordnede mål: et lavere træk på klodens ressourcer via mere og bedre genanvendelse. Jeg har valgt et par eksempler – der er mange at vælge imellem: Det første er flere offentlige grønne indkøb. Her spiller blandt andre kommunerne en rigtig stor rolle. Vi skal også have affaldshierarkiet mere tydeligt i spil, så det indgår klart i vores regulering på tværs af sektoren – for eksempel ved regler om produkter eller krav til bygge- og anlægsarbejder."	"NO QUESTION"	NA	.	-1	-1	26124	1317	6	10	10
P51	91	False	experiment	"Det tredje eksempel, som også flugter med det nye regeringsgrundlag, er ønsket om at skatter og afgifter flyttes fra arbejde til miljø og ressourcer. Det skal understøtte grønne jobs og sikre, at der er betaling for både ressourceforbrug og miljøbelastning."	"NO QUESTION"	NA	.	-1	-1	9806	1317	7	10	10
P51	92	False	experiment	"Et nyt 7. miljøhandlingsprogram i EU skal konkretisere køreplanen. Under overskriften 'Greening the economy' skal et langsigtet 10-årigt program bidrage til Europas grønne omstilling af økonomien. Det skal bygge videre på ressourceeffektivitets-dagsordenen, indsatsen for biodiversitet, vand, klima samt miljø og sundhed, som var hovedindsatsområderne i det 6. miljøhandlingsprogram. Bæredygtig forvaltning af ressourcer og affald er fortsat et område, der prioriteres højt på europæisk plan."	"NO QUESTION"	NA	.	-1	-1	21116	1317	8	10	10
P51	93	False	experiment	"Også på den hjemlige bane, er der politisk fokus på ressourcer. Den danske affaldsstrategi 2013-18 bliver en ressourcestrategi. Ressourcestrategien skal være vores nationale plan for, hvad der skal gøres. Den vil blive fulgt af en plan for, hvordan vi forebygger affald i 2014-19, som skal laves for første gang."	"NO QUESTION"	NA	.	-1	-1	14370	1317	9	10	10
P51	94	False	experiment	"Begge planer skal være klare og prioriterede: Hvad er vigtigst at nå for Danmark? Hvad er realistiske, men samtidig ambitiøse målsætninger? Hvilke midler skal vi have på plads for at nå målene? Det er spørgsmål, som jeg er sikker på, at branchen har nogle bud på. Jeg håber, I vil være med til at finde løsninger på tværs, der kan gavne både miljø, økonomi og konkurrenceevne. Ikke bare fordi det er bedst, men fordi det er den eneste løsning."	"NO QUESTION"	NA	.	-1	-1	16914	1317	10	10	10
P51	95	False	experiment	"Det allerbedste vil selvfølgelig være, hvis vi kan undgå at producere affald. Men hvordan gør vi det? Her tager jeg udgangspunkt i, hvad den enkelte kan gøre. Som forbrugere kan vi købe kvalitetsvarer, bruge tingene mere og længere og reparere dem i stedet for at smide dem ud. Vi kan også købe brugt, sælge, bytte eller forære vores ting væk. På den måde får de et længere liv, og flere får glæde af dem."	"NO QUESTION"	NA	.	-1	-1	14689	1317	11	10	10
P51	96	False	experiment	"Med hensyn til madspild burde det være endnu nemmere. Hvis alle forbrugere fulgte det enkle råd: 'Køb ikke mere mad, end du har brug for, og brug det mad, du har købt' – ja, så ville der ikke være så meget madspild i vores affaldssække. Jeg er glad for, at dette budskab er blevet udbredt af mange forskellige aktører i de seneste år. Af både miljømæssige, økonomiske og etiske årsager skal madspildet blive mindre."	"NO QUESTION"	NA	.	-1	-1	23035	1317	12	10	10
P51	97	False	experiment	"Ressourceeffektivitet i hele produktionskæden for fødevarer skal indgå i EU-arbejdet. Det er allerede nævnt i udkastet til køreplanen for ressourceeffektivitet, og det skal også med i det 7. miljøhandlingsprogram."	"NO QUESTION"	NA	.	-1	-1	7164	1317	13	10	10
P51	98	False	experiment	"I regeringen lægger vi stor vægt på at få skabt brede samarbejder på tværs af myndigheder, organisationer, virksomheder og private. På affaldsområdet har vi allerede et par gode eksempler, som viser, hvordan partnerskaber kan fremme teknologiudvikling."	"NO QUESTION"	NA	.	-1	-1	9328	1317	14	10	10
P51	99	False	experiment	"I arbejdet med den miljøteknologiske handlingsplan skal virksomheder og myndigheder sammen skabe de bedste rammer for en fokuseret teknologiudvikling. Myndighederne får samtidig input til en god og bæredygtig regulering."	"Spørgsmål:\nSkal virksomheder og myndigheder - ifølge taleren - arbejde sammen om teknologiudviklingen?"	1	1	4401	1	7721	1317	15	10	10
P51	100	False	experiment	"Det ene eksempel er et partnerskab, der handler om affald fra neddeling af skrot af biler og elektronik, kaldet shredderaffald. Det deponeres i dag. Men her er der både energi og værdifulde materialer som metal og plast at hente. Et andet eksempel er fosfor i spildevand og slam. Fosfor er en uundværlig plantegødning, som verden kommer til at mangle. Partnerskabet arbejder med at øge fosforudnyttelsen ved at fokusere på udvikling af teknologier og udformning af regler. Målet er, at værdifulde fosforressourcer ikke går tabt."	"NO QUESTION"	NA	.	-1	-1	21557	1317	16	10	10
P51	101	False	experiment	"Som I kan se i regeringsgrundlaget, ønsker vi også, at grønne afgifter og behandlingskrav skal være med til at sikre, at naturens ressourcer bruges mest skånsomt, samtidig med at økonomien kommer i bedring. Miljøforbedringer og økonomisk vækst er hinandens forudsætninger og ikke fjender."	"Spørgsmål:\nMener taleren at vi både kan opnå miljøforbedringer og økonomisk vækst?"	1	1	4122	1	10506	1317	17	10	10
P51	102	False	experiment	"Hvad kan vi så gøre helt konkret? Det er der mange gode bud på. De danske afgifter på deponering og forbrænding af affald har virket. De har været en vigtig del af succesen med at få reduceret de deponerede mængder helt ned til 6 procent af de samlede affaldsmængder. Men det kan blive endnu bedre. Den nye afgift på deponering af farligt affald har betydet, at affaldsproducenter og deponeringsanlæg nu gør sig store anstrengelser for at udnytte ressourcerne endnu bedre og reducere spildet. Det er altså et eksempel på, at afgifter kan være med til at stimulere en udvikling der sætter fokus på ressourcerne."	"NO QUESTION"	NA	.	-1	-1	22480	1317	18	10	10
P51	103	False	experiment	"En anden mulighed er at stille krav til behandlingen af konkrete typer af affald. Men det kan vi kun gøre, når vi har det fulde overblik over de miljømæssige effekter og samtidig kender de samfundsmæssige omkostninger."	"Spørgsmål:\nMener taleren at det - på tidspunktet for talen - er realistisk at stille krav til behandlingen af konkrete typer af affald?"	2	2	7094	1	7816	1317	19	10	10
P51	104	False	experiment	"Et eksempel er forskellige former for genanvendelse af gipsaffald. Miljøstyrelsen er i øjeblikket ved at afslutte de nødvendige livscyklusanalyser og samfundsøkonomiske vurderinger, der skal til, så politikerne får et solidt beslutningsgrundlag. Et andet eksempel er den dagrenovation, som vi brænder i dag. Der er potentiale i at sortere affaldet bedre, så mere af det kan genanvendes. Den organiske del af affaldet kan eksempelvis behandles på biogasanlæg, så energien bliver udnyttet, og plantenæringsstofferne kan udnyttes som gødning på markerne. På den måde kan vi undgå et stort spild af ressourcer og forbedre vores klimaregnskab samtidigt."	"Spørgsmål:\nMener taleren at det er en god ide at sortere dagrenovation bedre end det gøres på tidspunktet for talen?"	1	1	6136	1	24404	1317	20	10	10
P51	105	False	experiment	"Klimaudfordringen er til at tage og føle på. Vi skal lægge vores forbrugs- og produktionsmønstre radikalt om, så vi bruger mindre energi. Og teknologi skal forbedre den måde, energien produceres på."	"NO QUESTION"	NA	.	-1	-1	6801	1317	21	10	10
P51	106	False	experiment	"Affald bidrager til energiproduktion i dag sammen med bl.a. kul og naturgas, men det kræver nytænkning at omlægge energiproduktionen – også i affaldsbranchen. Det er ikke kun et spørgsmål om, hvor meget affald vi kan brænde. Det kan faktisk være en klimamæssig fordel at genanvende affaldet, også selvom det indeholder biomasse."	"NO QUESTION"	NA	.	-1	-1	9612	1317	22	10	10
P51	107	False	experiment	"Mange livscyklusvurderinger dokumenterer, at genanvendelse af glas, papir og metaller sparer CO2. Endelig peger undersøgelser på, at plast bliver en større og større del af vores affald."	"NO QUESTION"	NA	.	-1	-1	9259	1317	23	10	10
P51	108	False	experiment	"For at være åbne for nytænkning, er det vigtigt, at vi sørger for en intelligent tilpasning af forbrændingskapaciteten. Der er ingen, der kan være interesseret i en teknologisk lock-in i form af for mange dyre forbrændingsanlæg. Det vil forhindre innovationen i affaldsbehandlingen, alene fordi anlæggene står der og skal fyldes op med affald."	"NO QUESTION"	NA	.	-1	-1	15661	1317	24	10	10
P51	109	False	experiment	"Her til slut vil jeg gerne runde to meget vigtige emner: sammenhængen mellem affald og miljø, og affald og sundhed. I Danmark genanvender vi det meste bygge- og anlægsaffald. Men der er to store udfordringer, som er vigtige at gribe: Vi skal gøre mere for at undgå farlige stoffer som PCB i det affald, der genanvendes. Det drejer sig både om miljø og sundhed. Vi skal være bedre til at sørge for, at produkter, som genanvendes, har så høj en kvalitet, at bygherrerne efterspørger dem. Vi skal med andre ord arbejde for at mindske downcycling af bygge- og anlægsaffaldet."	"NO QUESTION"	NA	.	-1	-1	24034	1317	25	10	10
P51	110	False	experiment	"Nu har jeg været rundt om forskellige vinkler på affaldspolitikken. De vigtigste budskaber fra mig til jer er: Vi skal udnytte ressourcerne – der skal være ressourcer nok til alle på kloden. Vi skal passe på klimaet – genanvendelse af affald er typisk bedre end anden behandling. Vi skal beskytte miljø og sundhed – vi må ikke sprede farlige stoffer, når vi genanvender affaldet. Det vigtigste er altså at forebygge, at der overhovedet opstår affald, og at genanvende så meget som muligt af det affald, der opstår. Lad os i fællesskab bidrage til Danmarks løsninger på både den økonomiske og ressourcemæssige krise med visionen om at stile mod (næsten) fuld ressourceudnyttelse i 2020."	"NO QUESTION"	NA	.	-1	-1	21053	1317	26	10	10
