Session_Name_	Trial_Index_	Trial_Recycled_	condition	text	question	expected_key	QUESTION_KEY_PRESSED	QUESTION_RT	QUESTION_ACCURACY	SENTENCE_RT	speechid	paragraphid	counterbalance	LAST_COUNTERBALANCE
P52	1	False	practice	"NY TALE BEGYNDER NU"	"NO QUESTION"	NA	.	-1	-1	3238	1327	-1	0	0
P52	2	False	practice	"Hej alle sammen!"	"NO QUESTION"	NA	.	-1	-1	1789	1327	0	0	0
P52	3	False	practice	"Som I allerede ved, vil vi om lidt tænde for et bål, der vil brænde et skab af – det skab, vi har følt os begrænset af, indelukket i, og som de fleste af os er brudt ud af for at kunne blive lykkeligere."	"NO QUESTION"	NA	.	-1	-1	11846	1327	1	0	0
P52	4	False	practice	"'Men skabe er da ganske praktiske til opbevaring af mangt og meget, ikke sandt?' Jo, opbevaring af værdier, det er rigtigt – men når vi først begynder at sætte spørgsmålstegn ved disse værdier, så føles skabet mere og mere trangt, for det kan ikke rumme vores ideer og følelser mere."	"NO QUESTION"	NA	.	-1	-1	12480	1327	2	0	0
P52	5	False	practice	"'Jamen hvad er der i det skab?' Der er en opfattelse af at kvinder og mænd skal tænke, føle, klæde sig og handle forskelligt – fordi nogle er kvinder og andre er mænd. Kønsroller kalder vi det. Men det rækker faktisk meget længere end bare til roller, vi spiller – rollerne invaderer vores tanker og vores følelser, så vi næsten ikke kan tænke uden for rollen, så længe skabet omslutter os, og i hvert fald først og fremmest føler vi må tage hensyn til dem, der er i skabet..."	"Spørgsmål:\nMener taleren at kønsroller både påvirker hvordan vi handler og tænker?"	1	1	8686	1	26695	1327	3	0	0
P52	6	False	practice	"Når vi endelig bryder ud af skabet og for alvor viser og siger det, der ikke passer i det normative skab, kan vi godt opleve negative reaktioner – men så sandelig også positive – for vi er jo slet ikke alene!"	"NO QUESTION"	NA	.	-1	-1	15895	1327	4	0	0
P52	7	False	practice	"Der er nemlig andre som ligner os mere eller mindre, vi er en broget og mangfoldig flok i alle aldre, hudfarver, kulturelle baggrunde, med og uden handicap, med og uden tro, af forskellig politisk overbevisning, og – vigtigst for os her: af flere forskellige kønsidentiteter og seksuelle orienteringer."	"NO QUESTION"	NA	.	-1	-1	14145	1327	5	0	0
P52	8	False	practice	"Fælles for os er, at vi er en regnbueminoritet i forhold til flertallets skab – men det betyder ikke at majoriteten har ret. Vi vil udefra informere om, at der er andre måder at se tingene på, tilbyde et alternativt syn på livet og verden, som kan hjælpe nogle – især børn og unge – ud af et skab, de mistrives i."	"Spørgsmål:\nMener taleren at minoriteter bør tie med deres verdenssyn?"	2	2	4150	1	12274	1327	6	0	0
P52	9	False	practice	"Lad os brænde skabet med normerne, så vi frigøres fra dem og får retten til at være dem, vi faktisk er!"	"NO QUESTION"	NA	.	-1	-1	4770	1327	7	0	0
P52	10	False	experiment	"NY WIKIPEDIA-ARTIKEL BEGYNDER NU"	"NO QUESTION"	NA	.	-1	-1	2915	202205	-1	13	13
P52	11	False	experiment	"En blini er en tynd pandekage, der traditionelt er fremstillet af hvedemel eller i nogle tilfælde boghvedemel. Blinis stammer fra Rusland og områderne deromkring, og de serveres typisk med smetana, kvark, smør, kaviar, lakserogn osv. Blinis er blandt de mest populære og udbredte retter i Rusland. I de fleste bliniopskrifter anvendes gær, hvilket normalt ikke indgår i en traditionel pandekageopskrift."	"NO QUESTION"	NA	.	-1	-1	17842	202205	0	13	13
P52	12	False	experiment	"I Vesten opfattes blinis normalt som små salte pandekager fremstillet af en hævet dej. På moderne russisk bruges blinis i højere grad om pandekager på størrelse med en stegepande, selvom mindre hævede pandekager også kaldes blinis og var langt mere udbredte historisk.
Blintzes, som stammer fra det jødiske køkken i Rusland og Østeuropa, er en variant af blini. De er normalt tynde pandekager af hvedemel (ikke boghvedemel), der bliver foldet sammen om et fyld (f.eks. ost eller frugt) og bliver stegt eller bagt."	"Spørgsmål:\nStammer blintzes fra det jødiske køkken?"	1	1	4872	1	24162	202205	1	13	13
P52	13	False	experiment	"NY WIKIPEDIA-ARTIKEL BEGYNDER NU"	"NO QUESTION"	NA	.	-1	-1	989	202206	-1	13	13
P52	14	False	experiment	"Romersk jernalder er en betegnelse for jernalderkulturen mellem år 1 og 400 e.v.t. i Skandinavien, Nordtyskland og Nederlandene. Navnet er udtryk for, at Romerrigets indflydelse i området blev markant større i denne periode. Den foregående kaldes normalt førromersk jernalder og den efterfølgende germansk jernalder.
Der er i Skandinavien mange steder fundet tegn på import fra Romerriget, fx amforaer og krukker brugt til varetransport, luksusprodukter som glasbægre, bronzefigurer og udsmykkede metalvarer, og for første gang optræder der fx spillebrikker i det nordiske område. Også romerske våben i store mængder optræder i våbenofringer i fund fra perioden."	"NO QUESTION"	NA	.	-1	-1	33790	202206	0	13	13
P52	15	False	experiment	"Perioden var urolig. Flere store fund af ofringer af krigsbytte er en afspejling af politiske begivenheder der rakte langt ud over landsbyfællesskabet og lokalområdet. Disse fund viser. at regulære hære blev samlet, og at der blev dannet alliancer mellem nabofyrster, som blev opretholdt over flere årtier. Der tegner sig et billede af forbund i Sydnorge, Østsverige om Mälaren og et stort forbund bestående af Jylland, Fyn, Sjælland og Sydsverige.
Efterhånden mistede Romerriget sin dominans i de vestlige provinser, og nabofolkeslag, herunder mange germanske, begyndte i stigende grad at foretage plyndringstogter ind i romersk territorium for til sidst at tage magten i store landområder, den såkaldte folkevandringstid."	"Spørgsmål:\nVar romersk jernalder en urolig periode?"	1	1	3054	1	28555	202206	1	13	13
P52	16	False	experiment	"NY WIKIPEDIA-ARTIKEL BEGYNDER NU"	"NO QUESTION"	NA	.	-1	-1	1118	202204	-1	13	13
P52	17	False	experiment	"Eleonore Tscherning (1817-1890) var en dansk maler, der var gift med Danmarks første krigsminister, A.F. Tscherning. Hun blev som ung undervist i tegning og maleri af sin kusine, Christine Løvmand og begyndte som blomstermaler, men skiftede snart til landskabsmaleri. Hun var ven med og blev inspireret af folk som Læssøe, Lundbye og Skovgaard. Hun debuterede anonymt på Charlottenborg Forårsudstilling i 1842 og udstillede her hvert år frem til 1849, snart også under eget navn, som en af de første kvindelige kunstnere."	"Spørgsmål:\nVar Eleonore Tscherning kendt som portrætmaler?"	2	1	5635	0	30316	202204	0	13	13
P52	18	False	experiment	"Eleonore blev i 1845 gift med sin 22 år ældre fætter, A.F. Tscherning, og maleriet kom efterhånden til at fylde mindre, mest fordi husholdning og selskabelige forpligtelser kom til at fylde i hendes liv. Fra midten af 1860'erne og cirka tyve år frem fungerede hun dog som dekorationsmaler på P. Ipsens Terracottafabrik, hvor hun også uddannede elever, samtidig med at hun underviste sine børn, hvoraf to døtre også blev anerkendte malere. Eleonore Tscherning er også efter sin død anerkendt for sin kunst med flere udstillinger."	"NO QUESTION"	NA	.	-1	-1	22818	202204	1	13	13
P52	19	False	experiment	"NY TALE BEGYNDER NU"	"NO QUESTION"	NA	.	-1	-1	1264	18670	-1	4	4
P52	20	False	experiment	"Tak fordi jeg måtte komme. Og tak fordi I ville komme!\nAlle jer, der er til stede her i dag, har brugt tid og kræfter på at udvikle nye, bæredygtige løsninger. I har brugt jeres viden, fantasi og gode ideer til at tænke nyt og på tværs. Alt sammen med det formål at skabe en grønnere og mere bæredygtig verden. Det værdsætter jeg rigtig meget."	"NO QUESTION"	NA	.	-1	-1	11100	18670	0	4	4
P52	21	False	experiment	"Vi har brug for jeres indsats. FN har defineret 17 verdensmål, der skal sætte kurs mod en mere bæredygtig udvikling – både for mennesker, og for den planet, vi bor på. En af de udfordringer, der optager mig og hele regeringen rigtig meget, det er klimaforandringerne. Og hvis vi et øjeblik forestiller os, at vi om 80 år mødes igen her på RUC – eller, at vores børnebørn og oldebørn mødes – så synes jeg, vi skylder dem at komme op med løsninger, som gør, at vi ikke behøver svømme rundt her på campus. Så vi ikke behøver ankomme her til COconference i gummibåd. Ligesom vi skylder vores børn og børnebørn, at de stadig kan gå en tur i en frodig skov. Glæde sig over lærken, der synger og drikkevand direkte fra hanen."	"NO QUESTION"	NA	.	-1	-1	36351	18670	1	4	4
P52	22	False	experiment	"Det er folk som jer, der har været med til at bestemme, at det seneste folketingsvalg blev så grønt. Og jeg er glad, stolt og en lille smule ydmyg over at være en del af en regering, der tager det ansvar på os. Vi har sat os et mål om at nedbringe Danmarks udledning af CO2 med 70 procent i 2030. Det er en ambition, selv Uffe Elbæk ville kalde 'crazy'. Og sandheden er, at vi endnu ikke ved, hvordan vi når derhen."	"Spørgsmål:\nMener taleren at vælgerne har været med til at bringe klimabevidsthed på dagsordenen?"	1	1	6663	1	15606	18670	2	4	4
P52	23	False	experiment	"En ting er sikker; vi har brug for forskningen, hvis vi skal finde de bæredygtige løsninger. Derfor blev jeg for to uger siden enig med alle Folketingets partier om at sætte 1,5 mia. kr. af til forskning i grønne løsninger. Med aftalen sætter vi nogle overskrifter på de områder, hvor vi mener, at ny grøn forskning kan gøre gavn. Det gælder inden for landbrug, tung transport og byggeri. Og det gælder inden for arkitektur, design, natur og biodiversitet."	"NO QUESTION"	NA	.	-1	-1	24164	18670	3	4	4
P52	24	False	experiment	"Og fordi vi endnu ikke ved, hvordan vi når målet, så har vi brug for forskning, som er helt fri – og drevet af forskernes egne ideer. Men vi har også brug for forskning, der udvikles i tæt samarbejde med virksomhederne og kan give svar på nogle af de konkrete udfordringer, vi står med her og nu. Med aftalen om forskningsreserven sætter vi en ny grøn retning for udviklingen af Danmark. Men penge til forskning gør det ikke alene. Vi har brug for offensive hjerner som jeres til at bringe forskningen i spil. Og vi har brug for alle de vilde, konkrete, usandsynlige, fantastiske og inspirerende ideer, I kan komme op med."	"Spørgsmål:\nEr der - ifølge taleren - brug for fri forskning?"	1	1	4016	1	36621	18670	4	4	4
P52	25	False	experiment	"Det gode er jo, at når man – som jer – arbejder sammen på tværs af professioner, sektorer og fag, så kommer man til at se verden med nye briller. Og det er ofte lige der – i krydsfeltet mellem forskelligheder – at de gode ideer opstår. Derfor er COchallenge et fantastisk initiativ. Her deltager både gymnasieelever, bygningskonstruktører, datamatikere, multimediedesignere, forskere, virksomheder og mange flere med hver deres faglighed og syn på verden. Det kan ikke undgå at give nye og skæve perspektiver på bæredygtigheden. Perspektiver, som vi ellers ikke kunne have forudset."	"NO QUESTION"	NA	.	-1	-1	24255	18670	5	4	4
P52	26	False	experiment	"Tag bare vinderne af ARGOs COchallenge sidste år; 'Skraldepigerne', som de blev kaldt. 'Skraldepigerne' var 4 studerende fra Zealand, der gik sammen om at gøre det sjovt og attraktivt at genbruge de ting, vi andre smider ud. Ingen af de fire studerende kendte hinanden i forvejen. De kom fra tre forskellige studieretninger med tre forskellige fagligheder."	"NO QUESTION"	NA	.	-1	-1	19708	18670	6	4	4
P52	27	False	experiment	"Alligevel lykkedes det Rikke, Nadia, Christina og Melisa at komme op med en løsning, ingen havde tænkt på før. Ideen var at afholde skraldefester på genbrugspladsen. For et lille entrébeløb kan man få adgang til genbrugspladsen og komme og tage, hvad man har lyst til, mens man samtidig får inspiration fra designere og håndværkere til at upcycle skraldet."	"NO QUESTION"	NA	.	-1	-1	13579	18670	7	4	4
P52	28	False	experiment	"Jeg går selv ind for genbrug. Jeg blev faktisk gift i genbrug. Ikke at min mand var genbrug, men brudekjolen var. Det forbrug, vi mennesker har af tøj, er af så enorme dimensioner, at tøjindustrien er den næstmest forurenende industri i verden. Det tøj, vi ikke når at købe, bliver nogle gange brændt. Enorme bål med dyre sko, tasker og designertøj går op i røg og ender som aske. Det er næsten ikke til at bære."	"NO QUESTION"	NA	.	-1	-1	20825	18670	8	4	4
P52	29	False	experiment	"Vi har kun én jordklode. Men globalt forbruger vi, som om der var 1,7 jordkloder. Det kan ikke blive ved med at gå. Derfor har vi brug for studerende som Rikke, Nadia. Christina og Melisa, der kan vende tingene på hovedet og tænke nyt. Og vi har brug for initiativer som COchallenge, der inspirerer os til, hvad vi kan gøre – både sammen og hver især - for at blive mere miljøbevidste i dagligdagen."	"Spørgsmål:\nForbruger mennesker - ifølge taleren - 3,7 gange jordens ressourcer?"	2	2	4535	1	13175	18670	9	4	4
P52	30	False	experiment	"850 studerende har deltaget i forløbet her. Jeg synes, I er seje. I viser vejen. I er 'blæredygtige', som arrangørerne af konferencen kalder jer med et sjovt, nyt ord. Det samme gælder de 450 virksomheder og offentlige organisationer, der deltager. Jeg synes, det viser noget om, at der er en bevægelse i gang, som er svær at stoppe. Og samtidig er vi jo en del af en global bevægelse, hvor virksomheder, kommuner, byer og ngo'er verden over har kastet sig ind i kampen for mere bæredygtighed."	"NO QUESTION"	NA	.	-1	-1	20514	18670	10	4	4
P52	31	False	experiment	"Så når I spørger jer selv, om jeres lokale initiativer nytter, så er svaret ja. For nuvel, der kan være langt fra et initiativ som skraldefester på genbrugspladsen til abstrakte verdensmål. Men hvert lille initiativ og hver lille opfindelse udgør brændstof til den bevægelse, der kan skabe forandring."	"NO QUESTION"	NA	.	-1	-1	10821	18670	11	4	4
P52	32	False	experiment	"Og hvis vi gør det her rigtigt, kan vi gøre bæredygtighed til en god forretning for Danmark. Vores udvikling af bæredygtige løsninger kan være med til at flytte verden. Vi har gjort det før. For eksempel besluttede vi for mange år siden at bekæmpe vandspild og satse på bedre vandkvalitet. I dag eksporterer vi vandteknologi for milliarder. Opfindelser som vindmøllehoveder, termostater og pumper er alle sammen 'made in Denmark.' Nu har verden brug for, at vi gør det igen."	"NO QUESTION"	NA	.	-1	-1	20675	18670	12	4	4
P52	33	False	experiment	"Jeg vil gerne sige tak til Roskilde Kommune, RUC og alle I andre regionale aktører, der har stillet op med viden og ressourcer i dagens anledning. I starter lokalt for at forandre globalt. Det er sådan, det skal gøres. Fremtiden er grøn. Jeres fremtid. Vores fremtid. Lad os sammen skabe den forandring, der er brug for. Rigtig god COconference."	"NO QUESTION"	NA	.	-1	-1	10794	18670	13	4	4
P52	34	False	experiment	"NY TALE BEGYNDER NU"	"NO QUESTION"	NA	.	-1	-1	2297	7946	-1	4	4
P52	35	False	experiment	"Godaften, og tak fordi jeg må komme og holde årets båltale. Jeg har glædet mig til skulle stå her i aften og holde båltalen og dermed fejre midsommer eller Sankt Hans aften, som det jo også hedder, sammen med alle jer. Midsommer er en helt speciel tid for mig, den er faktisk lige så vigtigt for mig som julen. For hvor vi ved jul mødes i mørket om de små lys. Så mødes vi i aften i det lille mørke for sammen at fejre det helt store lys. Velvidende, at nu drejer årstidshjulet en tak. Nu står vi midt i sommeren, og vi går dermed ... ja, jeg er ked af at sige det ... men vi går faktisk mod mere mørke tider."	"NO QUESTION"	NA	.	-1	-1	22862	7946	0	4	4
P52	36	False	experiment	"Men lad os nu glemme det for en stund og i stedet glæde os over lyset. Og lad os glæde os så meget, at vi også her i aften tænder lys. Og hygger og er sammen. For når vi så vælger at gå ud af vore huse. Ud af vores carporte og stige ned fra vore cykler og ud af vore biler. For at stå her sammen. Er det vel egentlig også, fordi vi ønsker at dele denne begejstring for lyset med hinanden. For hver eneste af jer. Er der noget, der gør, at I ikke synes, det er nok bare at tænde et fyrfadslys og passe parcellen."	"NO QUESTION"	NA	.	-1	-1	14324	7946	1	4	4
P52	37	False	experiment	"Nej, både I børn og I voksne har søgt mod det her fælleskab. Og hvorfor gør vi egentlig det som moderne mennesker midt i en online tid? Jamen så er det vel fordi – og pardon my french – at det sgu ikke bare er noget middelalderligt pjat med hekse og helgener. Eller vikingetidens Frejakult. Så er det, fordi det giver mening. Så vil jeg gætte på, at I er kommet, fordi midsommerfælleskabet og det store bål på en eller anden måde siger noget for jer, ligesom det siger mig noget."	"NO QUESTION"	NA	.	-1	-1	28740	7946	2	4	4
P52	38	False	experiment	"At stå her i midsommernatten. Og være fælles. Om lyset. Om varmen. Om sundet og Kronborg. Om fællesskabet. Selv med svenskerne derovre på den anden side. Fælles om ilden. Om jorden og havet, der omgiver vores lille ø Sjælland. Om dyrene og hinanden. Fælles om fred og de elementer og mineraler, der forbinder os. Om kvantepartiklerne, som er inden i os og millioner af kilometer væk, og dog er forbundne. Om demokratiet, som vi netop igen for få uger siden har fejret, uanset om vi er tilfredse med udfaldet eller ej. Fælles om vor historie. Som vore forfædre har bygget til os. I form af murstene som slottet bagved mig. Hvor en konge ved navn Christian holdt sin kroningsfest. "	"Spørgsmål:\nBliver denne tale holdt på Frederiksborg Slot?"	2	1	15462	0	35378	7946	3	4	4
P52	39	False	experiment	"Og en flok engelske skuespillere optrådte og fortalte om derhjemme, som blandet med Saxos fortællinger om en dansk prins, et engelsk hævndrama om en spansk tragedie, og en vis forfatters søns og faders død blev til en af de største fortællinger om os nogensinde, ikke bare som danskere, men som mennesker, om hvad det er at være menneske, på trods af at forfatteren efter sigende aldrig selv befandt sig på denne kyst. Fælles er vi også om de fortællinger, der har skabt denne aften. Om Lysfester, der skulle holde ondskaben ude. Om trolde og hekse, dæmoner."	"NO QUESTION"	NA	.	-1	-1	17688	7946	4	4	4
P52	40	False	experiment	"Solhversfesten, der overtog Valborgsnatten. Hvor mænd og kvinder drak snaps til de segnede. Og de unger piger skulle vogte sig for Sankthansormen. For den kunne man nemlig blive gravid af. Fælles er vi også om den rensende ild, det rensende bål, som ifølge gammel skik optager alle vore indre hekse, dæmoner og trolde. Og som ved at dvæle blikket mildt og uden at fokusere, stimulerer melatoninen inde i vore hjerner. Gør os rolige, afslappede, fredfyldte."	"NO QUESTION"	NA	.	-1	-1	28896	7946	5	4	4
P52	41	False	experiment	"Fælles er vi i fortællingen. Om en mand 3426 km herfra, som ifølge en læge ved navn Lukas, fødtes på denne dag. 6 måneder før sin fætter, hvis ankomst han skulle forkynde. Manden ved navn Johannes råbte i ørkenen om det, der vil ske, de muligheder, der vil komme. Efter ham opkaldtes denne dag nogle århundreder senere: Johannes dag, Johannes den hellige, sanctus Johannes, eller på DANSK: Sankt Hans. Fælles er vi om denne historie. Om vi tror på den eller ej. Myterne flyder sammen med religioner og folkefortællinger. Og selvom få tror på dem i bogstavelig forstand, hvad enten det gælder hyldemor eller jomfrufødsler, hekse eller huldrer. Så tror vi på det, der ligger bag ordene."	"Spørgsmål:\nEr 'Johannes den hellige' et andet navn for 'Sankt Hans'?"	1	1	3088	1	29000	7946	6	4	4
P52	42	False	experiment	"Et ordsprog siger, at vi ikke fortæller børn historier om drager for, at de skal tro på dem, men for at de skal lære at slå dem ihjel. Eller tæmme dem. Det samme gælder ord. Og fortællinger. Da Johannes' fætter endelig trådte frem der ved floden og lod sig døbe svævede en due over ham, fint symboliserende ånde. Og det er måske netop ånd, der skaber fællesskabet. Forbindelsen mellem os. Den, der ligger bag ordene, traditionerne, festerne, højtiderne. Traditioner uden ånd er glædesløse. Derfor er denne tradition særlig smuk. For den forbinder det hele. Lyset. Fortællingerne. Myterne. Glæden. Og freden. Om det at året går sin gang. Og at vi har nogen indbyggede, traditionsbundne milepæle, der markerer dette."	"NO QUESTION"	NA	.	-1	-1	37755	7946	7	4	4
P52	43	False	experiment	"For det sjove er vel egentlig også, at i aften tænker vi ikke på alt det, der skete de foregående 12 måneder siden sidste sommer. Nej, vi træder nærmest ind i en magisk stund. Hvor i går og i forgårs er forsvundet. Og at vi tænker på sidste års bålaften. Vi ophæver den kontinuerlige, lineære måde at se verden på. Hvor vi midt i alle vores praktiske gøremål – måler tiden et stykke efter et andet. Alt dette bliver for en stund ophævet."	"NO QUESTION"	NA	.	-1	-1	24958	7946	8	4	4
P52	44	False	experiment	"Og vi træder ind i årshjulets cirkulære rytme. For vi giver pokker i januars måneds lommesmerter og februars tristesse. Marts måneds tunge regn. Og april måneds forårsbebudning. Netop i aften er vi bare. Og vi lader tankerne gå mod alle de andre midsommeraftner. Fuldt af skønheden og nybrud. Fuld af forventninger, og vi kan på en aften som i aften næsten høre mosekonen brygge. Og føle, hvordan hyldeblomsten beruser os."	"NO QUESTION"	NA	.	-1	-1	31502	7946	9	4	4
P52	45	False	experiment	"Og hvad er det så for noget, vi tænker på? I har sikkert hver især jeres egne traditioner, som I har været en del af, inden i kommet her. I mit barndomshjem var det sådan, at lige så meget som julen var en familiær begivenhed, så var midsommer der, hvor de mødtes med den udvidede familie. Altså alle de venner, vi børn, vi så komme tit og tæt i barndomshjemmet."	"NO QUESTION"	NA	.	-1	-1	15553	7946	10	4	4
P52	46	False	experiment	"Så var man nemlig sammen med den selvvalgte familie. Og der fejrede de voksne hele aftenen det fælleskab, de havde etableret med hinanden mens vi unger legede. Og glædede os helt sindssygt til, at vi skulle være længe oppe. Og vi skulle se bål ... for efter mad og leg, så var det dét, vi skulle, vi skulle se bål. Og vi var sammen om det. Og da jeg blev ældre, søgte jeg selv mod mine egne selvetablerede fællesskaber. Ligesom I har gjort. Og ve den, som sad alene på sankthansaften."	"NO QUESTION"	NA	.	-1	-1	29480	7946	11	4	4
P52	47	False	experiment	"Som halvkikset teenager bestod en af årets udfordringer altid i at sørge for, at man var med i en flok på nytårsaften og så på midsommeraften. Og netop de aftener er nogen af de aftener og nætter, der for den, der ikke har et fælleskab, kan virke som uendelige. At sidde der alene og tælle sekunderne. Velvidende, at man ikke har en at holde i hånden, når bålet tændes. Ikke en af se smile. Og glæde sig med. Og det er en aften, hvor vi i vore voksne fælleskaber ofte prøver at huske at tage dem, der står udenfor et fælleskab med."	"NO QUESTION"	NA	.	-1	-1	28586	7946	12	4	4
P52	48	False	experiment	"Vi inviterer lige naboen med ind – om ikke andet – så for en kort stund. For vi kan vel ikke glædes. Hvis vi ikke har nogen at glæde os sammen med. Vi kan ikke nyde flammerne fra bålet. Og de lyse nætter, hvis vi ikke kan føre en samtale. Nyde stilheden sammen med et andet menneske, der står os nært. For netop dermed bliver vi frie. Vi bliver frie for ensomhedens trange kår. Og oplever den frihed, det at give og modtage sommerens varme kærlige kys på kinden, er."	"NO QUESTION"	NA	.	-1	-1	26166	7946	13	4	4
P52	49	False	experiment	"Så vi skal tænde bålet. For I er kommet med jeres fælleskaber for sammen at nyde de store flammer. Og det skal I også komme til. Og det bål, vi tænder, er et samlingspunkt for fælleskabet. Det helt nære og det selvvalgte. For i aften fejrer vi de lyse nætter. Vi fejrer, at vi som de frie mennesker, vi er, er frisat gennem de venner og den familie, de fælleskaber, som er den ild, og den motor, der driver os. Så når vi om lidt tænder bålet. Så er spørgsmålet vel, om det, vi gør, ikke også er vi sætter blus på vores fælleskaber."	"NO QUESTION"	NA	.	-1	-1	27458	7946	14	4	4
P52	50	False	experiment	"Tak for ordet."	"NO QUESTION"	NA	.	-1	-1	1404	7946	15	4	4
P52	51	False	experiment	"NY TALE BEGYNDER NU"	"NO QUESTION"	NA	.	-1	-1	1030	26682	-1	1	1
P52	52	False	experiment	"Kære studenter\nEt stort tillykke med jeres eksamen. I sidder nu her, som så mange før jer har gjort. I har med hårdt slid taget jeres studentereksamen, proppet jeres hoveder med viden og nu fortjener I at blive fejret. Nogle af jer ser måske også lidt trætte ud, men det skyldes måske ikke kun det hårde, faglige arbejde."	"NO QUESTION"	NA	.	-1	-1	12276	26682	0	1	1
P52	53	False	experiment	"I har været igennem 12-13 års skolegang hvor det meste har været lagt til rette for jer. Nu skal I til at bruge jeres viden, i første omgang til at vælge hvilken retning jeres tilværelse skal tage. For de fleste af jer er det nok første gang nogensinde, at der ikke er et oplagt valg for hvad I skal efter sommerferien."	"NO QUESTION"	NA	.	-1	-1	9591	26682	1	1	1
P52	54	False	experiment	"I bliver presset af ungdomsarbejdsløshed og Folketinget presser jer med fx SU-reform til at gå hurtigt i gang med videregående studier. Jeg håber, I føler, at vi har klædt jer godt på i løbet af jeres tre år på VK, så I har den viden og de kompetencer, der kræves for at træffe en god beslutning for jeres videre færd."	"NO QUESTION"	NA	.	-1	-1	12734	26682	2	1	1
P52	55	False	experiment	"Men viden - hvad er det egentlig, hvad vil det sige at vide noget og kunne noget her i 2013? Jeres bedsteforældres generation skulle lære kongerækken udenad, remser med Europas floder og byer, ja sågar salmevers. Jeg ved ikke hvor stærke I er i kongerækken – I er næppe blevet hørt i det, men for jer er viden noget andet. I lærer mindre udenad og det skyldes nok først og fremmest, at I er meget bevidste om, hvor let I har ved at slå faktuel viden op. Man kan let føle, at man ved alt, hvad internettet ved. Bare man har en smartphone, iPad eller computer, så kan man slå det op."	"NO QUESTION"	NA	.	-1	-1	26956	26682	3	1	1
P52	56	False	experiment	"De fleste af jer kender den situation, at læreren har stillet et spørgsmål. I selv eller en af kammeraterne har hurtigt googlet det og har fundet svaret, rakt hånden op og har svaret korrekt på lærerens spørgsmål. Man kan betragte den situation på flere måder: Snød I læreren? eller snød I jer selv? Eller var det i virkeligheden en rigtig fornuftig måde at løse opgaven på? "	"NO QUESTION"	NA	.	-1	-1	16104	26682	4	1	1
P52	57	False	experiment	"Professor i psykologi ved Harvard University Daniel M. Wegner har skrevet en artikel med titlen 'Don’t fear the cybermind'. Hans siger altså, at vi ikke skal frygte det han kalder Cybermind. Han anbefaler, at vi accepterer internettet som en hukommelsesudvidelse og forstår, at grænsen mellem vores egen bevidsthed og internettet bliver mere og mere flydende."	"NO QUESTION"	NA	.	-1	-1	13040	26682	5	1	1
P52	58	False	experiment	"I virkeligheden er den måde at arbejde på karakteristisk for mennesket også uafhængigt af internettet. Vi mennesker lever sammen i grupper og netværk, hvor vi støtter hinanden med vores forskellige kompetencer eksempelvis vores forskellige viden. Nogen af jer kender måske den situation hjemmefra, at hvis man skal vide noget om familiens fødselsdage så går man til et familiemedlem, skal man vide noget om bilen så er det et andet familiemedlem man går til. Der er ikke én person i gruppen som ved det hele, men tilsammen ved de rigtig meget.  "	"NO QUESTION"	NA	.	-1	-1	15057	26682	6	1	1
P52	59	False	experiment	"På den måde er internettet blot en teknisk udvidelse af den måde at samarbejde og videndele på. Vi er alle blevet en del af et stort cybermind. Så længe vi er forbundet til vores maskiner gennem snak og tastetryk, kan vi alle være en del af det største og smarteste sind nogensinde. Det er kun, når vi er fanget i et øjeblik uden vores net-forbindelse, at vi vender tilbage til vores egen beskedne hukommelse. Og det sker efterhånden sjældnere og sjældnere."	"NO QUESTION"	NA	.	-1	-1	12691	26682	7	1	1
P52	60	False	experiment	"I har lige som den første årgang været igennem en eksamensperiode med adgang til internettet, men dog med en masse restriktioner og begrænsninger: krav om at I ikke måtte kommunikere og dermed heller ikke søge på internettet og så mister internettet jo en stor del af sin værdi. Men man arbejder i øjeblikket på at justere eksamensformerne, så gad vide om ikke man om få år kan benytte internettets muligheder fuldt ud – også til eksamen."	"NO QUESTION"	NA	.	-1	-1	12712	26682	8	1	1
P52	61	False	experiment	"Internettet har eksisteret i hele jeres levetid. De sociale medier såsom Facebook og YouTube har eksisteret siden I var 10-12 år gamle. Det gør jer i den grad til superbrugere og det giver jer en masse muligheder og fordele, men der er et par faldgruber som I bør være opmærksomme på:"	"NO QUESTION"	NA	.	-1	-1	8187	26682	9	1	1
P52	62	False	experiment	"Plagiat. Det er blevet meget let - man finder et eller andet tilsyneladende brugbart på internettet, kopierer og indsætter. Umiddelbart er det positivt. Andres viden bliver brugt og kommer til at indgå som viden hos endnu flere. Det foregår også professionelt, der dukker jævnligt sager op om litterært plagiat eller forskningsmæssigt plagiat."	"NO QUESTION"	NA	.	-1	-1	13144	26682	10	1	1
P52	63	False	experiment	"'Der er mange mennesker, der kommer til et livsresultat ligesom skoledrenge; de snyder ved at skrive facit ud af regnebogen uden selv at have regnet stykket'. Den sætning er plagiat fra min side. Det er ikke mig, der har formuleret det. Æren tilskrives den danske filosof Søren Kierkegaard. Det er i orden at benytte noget som andre har formuleret, når bare man ærligt siger, hvor man har det fra. Kierkegaard påstår her, at mange mennesker finder en vej igennem livet uden selv at have lavet mellemregningerne og dermed uden at have en dybere forståelse."	"NO QUESTION"	NA	.	-1	-1	29295	26682	11	1	1
P52	64	False	experiment	"Jeg vil i forlængelse heraf kommentere en anden mulig faldgrube ved at vende tilbage til noget af det jeg sagde tidligere: hvad var det som jeres bedsteforældre fik ud af at lære så meget udenad? De fik opbygget nogle tankestrukturer som gjorde dem i stand til at forstå, analysere og fortolke diverse input. Hvis de stødte på et årstal, vidste de med det samme en hel masse om samfundet på det pågældende tidspunkt ud fra en viden om hvilken konge som regerede. "	"NO QUESTION"	NA	.	-1	-1	17046	26682	12	1	1
P52	65	False	experiment	"Det er vigtigt for jer, at I fortsat opbygger en base af viden for selvom det er blevet lettere at slå faktuel viden op på internettet, så er det nødvendigt, at I har et skelet at hænge den viden op på. Så hvis I besvarer lærerens spørgsmål ved at slå svaret op på Google, så er det i orden, hvis I selv forstår svaret og kan forholde jer til det, men hvis I blot videregiver det som papegøjer, så fungerer det ikke, og I snyder jer selv. Det gælder ikke kun i gymnasiet og i skoleverdenen, men også i det samfund I skal ud i bagefter."	"NO QUESTION"	NA	.	-1	-1	16243	26682	13	1	1
P52	66	False	experiment	"Jeg citerede for lidt siden Kierkegaard og da det i år er 200 år siden hans fødsel vil jeg dvæle lidt ved ham. Hvad husker vi Kierkegaard for i dag, hvad kan vi bruge ham til? Kierkegaard var optaget af individet. Han opfordrer individet til at træde i karakter blive synlig. Menneske er ikke noget man er, men noget man bliver igennem de valg man træffer."	"NO QUESTION"	NA	.	-1	-1	13504	26682	14	1	1
P52	67	False	experiment	"Kierkegaard har fyldt meget i medierne her i 2013. Eksempelvis har Kulturredaktør på Berlingske Jesper Beinov skrevet følgende: 'Kierkegaards arv handler, for mig at se, om, at det frie valg er det moderne menneskes vilkår samtidig med at man er forpligtet på næsten. Ingen tvinger os i dag til bestemte livsvalg. Vi kan vælge at overtage det nedarvede, det overleverede, eller vi kan vælge at forkaste det. Så længe vi ikke skader andre, men lidenskabeligt og oprigtigt vælger og vedstår os vores valg, er der ingen som anfægter vores ret til dette'"	"Spørgsmål:\nMener taleren at Kierkegaard stadig er aktuel i medierne?"	1	1	6129	1	18416	26682	15	1	1
P52	68	False	experiment	"I står overfor at skulle træffe valg for jeres liv og der er et utal af muligheder: I kan fortsætte med at studere til august, og hvis I gør det, har I alle mange forskellige studier at vælge imellem. Eller I kan holde et eller flere sabbatår for at tjene penge, eller for at tage på højskole, tage ud at rejse. Der er virkelig mange muligheder. Nogle af jer vil nok også opleve, at man ikke altid kan gå den korteste og mest lige vej. Man ved aldrig hvilke muligheder og forhindringer, der dukker op. "	"NO QUESTION"	NA	.	-1	-1	26867	26682	16	1	1
P52	69	False	experiment	"Folketinget presser jer til at gå hurtigt i gang. For nogle af jer vil det være det rigtige valg – for andre kan det være bedre med en pause. Der findes ikke en facitliste med rigtige valg eller forkerte valg. Men jeg tror på værdien af at tage de valg man træffer alvorligt. Hvis ikke man har en plan, så har man ikke noget at afvige fra. Så risikerer man at flyde med strømmen som en korkprop i en bæk."	"Spørgsmål:\nMener taleren at det er positivt hvis studenterne flyder med strømmen?"	2	1	12465	0	15730	26682	17	1	1
P52	70	False	experiment	"Nu har jeg talt om individets frie valg. Frihed er en helt central værdi for os danskere, men en anden lige så vigtig værdi er individualismens modstykke: fællesskab. Og hermed vil jeg forlade Kierkegaard, for når det drejer sig om fællesskab er det ikke Kierkegaard, man skal lytte til."	"NO QUESTION"	NA	.	-1	-1	16705	26682	18	1	1
P52	71	False	experiment	"Jeg har ved samtaler med mange af jer fornemmet hvor meget fællesskabet betyder for jer, både fællesskabet i klassen, på årgangen og på tværs af årgangene – VK-fællesskabet. I har ikke alle haft lige gode vilkår for at deltage i fællesskabet – her tænker jeg specielt på ITX-klassen. "	"NO QUESTION"	NA	.	-1	-1	11139	26682	19	1	1
P52	72	False	experiment	"Vi dimitterer i år den første ITX-klasse. I har dels haft nogle HTX-fag fra Mercantec og nogle STX-fag fra VK og så har i idrætten til fælles. I har været i den helt særlige situation, at I to dage om ugen har været på Mercantec og tre dage om ugen her på VK. Det har selvfølgelig nogle gange gjort det vanskeligt for jer at føle tilhørsforhold både til den ene og den anden skole. Men i dag dimitterer jeg jer herfra og understreger hermed, at I er og altid vil være en del af VK’s årgang 2013."	"NO QUESTION"	NA	.	-1	-1	20875	26682	20	1	1
P52	73	False	experiment	"Og til hele årgangen vil jeg sige, at I har bidraget. Nogle mest i arbejdet på klassen, og andre i det store fællesskab. Det er helt afgørende for at få den nødvendige sammenhængskraft på skolen. Også for samfundet er det vigtigt, at det består af borgere, der er bevidste om deres pligter og moralske ansvar. Den danske filosof og læge \nKlemens Kappel har sagt:"	"NO QUESTION"	NA	.	-1	-1	12247	26682	21	1	1
P52	74	False	experiment	"Vi er villige til at handle moralsk (også når det ikke umiddelbart gavner os selv), men kun så længe vi kan konstatere, at andre også gør det. Hvis man ser, at andre ikke yder deres til et moralsk projekt, så mister man selv sin motivation til at yde sit."	"NO QUESTION"	NA	.	-1	-1	18183	26682	22	1	1
P52	75	False	experiment	"For at bevare et samfund, som vi alle ønsker at leve i, er den enkelte således nødt til at handle moralsk og yde sit til fællesskabet, ellers falder fællesskabet fra hinanden og sammenhængskraften forsvinder. Det gælder både i det nære og det lidt fjernere. Så lad være med at snyde i skat og tilran jer ikke fordele, I ikke er berettiget til. Gør ikke på jeres arbejdsplads kun det, I skal. Gør også det, der er nødvendigt og engagér jer."	"Spørgsmål:\nOpfordrer taleren tilhørerne til at handle mere egennyttigt?"	2	2	15255	1	14066	26682	23	1	1
P52	76	False	experiment	"I har som enkeltindivider og som årgang formået at engagere jer. fx via Senatet, med musicalen Tusindårsfornemmelser, Dansk Røde Kors indsamling, Novus, Radio WadUp, morgensamlinger, café, Minerva etc. På den måde har I bidraget positivt til fællesskabet her på skolen. Fællesskaberne begynder med familie og venner, går via arbejdspladsen og lokalsamfundet til hele Danmark for til sidst at ende med hele verden. Hvis synsvinklen kun er ens egen snævre, får vi en verden, som de fleste vil have det dårligt i. Det er dog vigtigt at begynde med det nære. Magter man ikke det, kan man heller ikke frelse verden."	"Spørgsmål:\nHar skolens elever opført Tusindårsfornemmelser?"	1	1	7360	1	20894	26682	24	1	1
P52	77	False	experiment	"Jeg har givet jer nogle gode råd: Først det ret konkrete at udnytte de fordele som jeres generation har, for brug af det som Daniel M. Wegner kalder cybermind.\nMen gør det kritisk og med høj moral. Det er fint at benytte internettets muligheder til netværksdannelse og videndeling, men I skal sørge for konstant at udvide jeres eget skelet af viden, ellers risikerer I, at det bliver plagiat og papegøjesnak."	"NO QUESTION"	NA	.	-1	-1	21795	26682	25	1	1
P52	78	False	experiment	"Stå ved de valg I træffer, men ikke på en dumstædig måde. Forudsætninger kan ændre sig og man kan i nogle tilfælde være nødt til at træffe nye valg. Tænk i fællesskaber og engagér jer."	"NO QUESTION"	NA	.	-1	-1	11626	26682	26	1	1
P52	79	False	experiment	"Den engelske forfatter Oscar Wilde sagde: 'Det eneste man kan gøre med gode råd, er at give dem videre. Selv har man aldrig nytte af dem'. Jeg har valgt at give jer nogle stykker. Jeg håber, I vil tage det positivt. Det er et udtryk for oprigtig interesse fra min side. Jeg vil ønske jer alt mulig held og lykke på jeres fremtidige færd og sige til jer, at I altid er velkomne på Viborg Katedralskole."	"NO QUESTION"	NA	.	-1	-1	17919	26682	27	1	1
P52	80	False	experiment	"Med disse ord dimitterer jeg jer som studenter fra VK 2013."	"NO QUESTION"	NA	.	-1	-1	4007	26682	28	1	1
P52	81	False	experiment	"NY TALE BEGYNDER NU"	"NO QUESTION"	NA	.	-1	-1	2129	22811	-1	1	1
P52	82	False	experiment	"Fru minister, kære allesammen\nTusinde tak for, at I er mødt op i dag for at markere den internationale dag mod homo-, bi- og transfobi! Over hele kloden markeres dagen med tusindvis af arrangementer, som skal sætte fokus på de udfordringer, vi møder som en af de minoriteter i verden, som udsættes for mest forfølgelse og uretfærdighed."	"NO QUESTION"	NA	.	-1	-1	14762	22811	0	1	1
P52	83	False	experiment	"Det er en dag, som maner til sammenhold – sammenhold inden for hele gruppen af LGBTQI osv. Og til sammenhold, uanset hvilken geografisk, etnisk eller religiøs gruppe vi tilhører. Hvis LGBTQI-personer udgjorde en nation, ville vi være klodens tredje mest folkerige. Nu forholder det sig imidlertid sådan, at vi lever spredt over hele kloden – under vidt forskellige forudsætninger for at stå frem, kæmpe og frigøre os fra undertrykkelse. "	"NO QUESTION"	NA	.	-1	-1	16669	22811	1	1	1
P52	84	False	experiment	"Som vores demonstration her i dag meget grafisk illustrerer, så er der endnu 80 lande på jorden, hvor det at leve med en seksualitet eller kønsidentitet, som afviger fra flertallets, er strafbart – fra bøder til dødsstraf."	"NO QUESTION"	NA	.	-1	-1	7608	22811	2	1	1
P52	85	False	experiment	"Det er også derfor, vi står her i dag – for at huske på alle dem, som ikke ville kunne gøre tilsvarende i deres lande – af frygt for alvorlige repressalier – for at give dem stemme – for at huske på dem og for at lægge pres på vore politikere, så de tager LGBTQI-rettigheder op HVER gang, der er lejlighed til at gøre det – og uanset overfor hvem."	"Spørgsmål:\nEr det i alle lande risikofrit at tale højt om LGBTQI-rettigheder?"	2	2	6500	1	8904	22811	3	1	1
P52	86	False	experiment	"Vi skal ikke vige tilbage for at tale uretten midt imod. Og vi skal ikke relativere rettigheder. Om man er født i Kampala, Kathmandu, Cayenne eller København – så har man lige megen ret til at elske og leve i overensstemmelse med sig selv."	"NO QUESTION"	NA	.	-1	-1	14705	22811	4	1	1
P52	87	False	experiment	"Vi skal også bruge dagen til at minde os om, hvad vores eget sammenhold betyder – som LGBTQI-personer i Danmark 2016. Til at minde os om, at hvis vi ikke kæmper for alles ret i hele LGBTQI-familien – så taber vi også kollektivt kampen."	"NO QUESTION"	NA	.	-1	-1	11936	22811	5	1	1
P52	88	False	experiment	"I de sidste måneder har vi som organisationer – bl.a. de 4 organisationer, som står bag dagens demonstration – Sabaah, LGBT Danmark, Amnesty International og Copenhagen Pride – sammen med stærke transaktivister kæmpet den vigtige kamp for, at transpersoner i Danmark – og internationalt – fjernes fra listen over psykiske sygdomme. Alt tyder nu på, at denne kamp bærer frugt, og at det er lykkedes os at overbevise politikerne om, at Danmark skal gå forrest i verden på dette spørgsmål, og at det som i 1981, da det handlede om at fjernet homoseksuelle fra samme liste, betaler sig at vise verden vejen frem for at vente på WHO. "	"NO QUESTION"	NA	.	-1	-1	26802	22811	6	1	1
P52	89	False	experiment	"Det er vi glade for at have været med til at få til at lykkes – og det er lykkedes, fordi vi har stået bag hinanden og bakket hverandres kamp op. Sådan er vi stærke – for åben dialog og enighed i mål gør stærk."	"NO QUESTION"	NA	.	-1	-1	7168	22811	7	1	1
P52	90	False	experiment	"Kampen er ikke slut – nu skal vi bevare presset på den politiske proces, så transpersoner omsider får retten til egen krop og til at kunne bestemme over egen behandling – vi ønsker, at der indføres informeret samtykke i sundhedssystemet for transpersoner – ligesom for ALLE ANDRE DANSKERE, og vi ønsker, at der ændres i Sundhedsstyrelsens vejledning, så Sexologisk kliniks monopol brydes, og der igen indføres mulighed for, at transpersoner kan gå til en privatpraktiserende læge eller gynækolog for at få udskrevet de hormoner, de har brug for. "	"NO QUESTION"	NA	.	-1	-1	30333	22811	8	1	1
P52	91	False	experiment	"Transpersoner skal sættes fri – som selvstændige, myndige aktører i egne liv. Væk med umyndiggørelsen og formynderiet – det er uværdigt – det er umenneskeligt. Vi kan ikke finde os i det!!"	"NO QUESTION"	NA	.	-1	-1	6893	22811	9	1	1
P52	92	False	experiment	"Og det kan lade sig gøre. Hvis der er EN ting, der står tilbage fra sidste uges IDAHOT-forum i København, så er det den maltesiske minister for borgerrettigheder, sociale anliggender og forbrugerspørgsmål, Helena Dallis, svar på spørgsmålet: 'Hvad skal der til for at skabe forandring?'"	"NO QUESTION"	NA	.	-1	-1	12123	22811	10	1	1
P52	93	False	experiment	"Det skal lige siges, at den maltesiske regering på 3 år har ændret 85 forskellige lovkomplekser for at gøre dem mere homo-, bi-, trans- og intersex-inkluderende, hvilket har ført til, at det stærkt katolske Malta nu iflg. ILGA er langt det førende land i verden, når det gælder sikring af vore borgerrettigheder. Da de indledte arbejdet, var 80 % af befolkningen imod bedre rettigheder for LGBTQI-personer – nu, 3 år senere, er 80 % af befolkningen for."	"NO QUESTION"	NA	.	-1	-1	19628	22811	11	1	1
P52	94	False	experiment	"På spørgsmålet: 'Hvad skal der til for at skabe forandring?', svarede Helena Dalli: 'Two words: Political will!' Så let er det. Der skal vilje til – og mod! Politisk mod til ikke at lave politik efter meningsmålinger, men i forhold til, hvad man anser for at være rigtigt og retfærdigt, tilføjede hun."	"NO QUESTION"	NA	.	-1	-1	8506	22811	12	1	1
P52	95	False	experiment	"Så lad en opfordring til danske politikere lyde her fra Rådhuspladsen i dag: Gå forrest! Lad os skabe en revolution i fællesskab, hvor de sidste rester af LGBTQI-diskrimination endegyldigt fjernes fra dansk lovgivning. Sæt et arbejde i gang som det maltesiske, hvor lovgivningen systematisk granskes for uretfærdigheder, og lad disse blive fjernet – og nedsæt et råd af civilsamfundsorganisationer fra LGBTQI-miljøet til at rådgive jer om, hvordan man skaber ægte inkluderende lovgivning."	"Spørgsmål:\nMener taleren at LGBTQI-personer pt. diskrimineres af den danske lovgivning?"	1	1	4582	1	20456	22811	13	1	1
P52	96	False	experiment	"Vi husker, hvem der er med os, og hvem der går imod! Som Martin Luther King Jr. engang sagde: 'In the end, we remember not the words of our enemies, but the silence of our friends.'"	"NO QUESTION"	NA	.	-1	-1	12580	22811	14	1	1
P52	97	False	experiment	"Under sidste uges konference opfordrede de forsamlede politikere civilsamfundsorganisationerne til at være deres vagthunde – til at gøre dem opmærksomme på uretfærdigheder og til at være deres kritikere, når tingene ikke bevæger sig hurtigt nok frem. Det vil vi gerne – tak for invitationen. Men det forudsætter to afgørende ting:"	"Spørgsmål:\nOpfordrede politikerne i sidste uge civilsamfundsorganisationerne til at være deres vagthunde?"	1	1	6704	1	17523	22811	15	1	1
P52	98	False	experiment	"Den ene er, at I politikere sikrer, at vi har fornuftige forhold at arbejde under. I kan ikke på den ene side pålægge os det kollektive ansvar for på samfundets vegne at løfte denne opgave, og så samtidig ikke ville lægge midler til dette arbejde. Vi tre store organisationer, som står som arrangører her i dag, kan ikke i fællesskab mønstre én fuldtidsmedarbejder. "	"NO QUESTION"	NA	.	-1	-1	17348	22811	16	1	1
P52	99	False	experiment	"Alle er vi 100 % frivilligt drevet – og vi knokler for at skabe de resultater og den viden, I efterspørger. Men hvis I vil flytte det her område, som I siger, og hvis I vil basere jer på viden og fakta – så kræver det, at vi kan levere det – og det forudsætter altså, at man sætter midler af til indsamling af disse fakta."	"NO QUESTION"	NA	.	-1	-1	14636	22811	17	1	1
P52	100	False	experiment	"Vi KAN ikke gøre det selv!!"	"NO QUESTION"	NA	.	-1	-1	2257	22811	18	1	1
P52	101	False	experiment	"Det andet er, at I skal lytte, når vi taler med jer. Hør på og anerkend, hvilke problematikker og udfordringer vi lægger frem for jer – og stol på, at vi nok har ret, når vi påpeger dem. Undlad at negligere eller bagatellisere ting, der ikke influerer jer selv personligt."	"NO QUESTION"	NA	.	-1	-1	13421	22811	19	1	1
P52	102	False	experiment	"Tag som udgangspunkt, at vi ved, hvad vi taler om, og at når vi kommer med en problematik – så er det en, som bør løses – gennem politisk vilje og med politisk mod. Det er budskabet fra i dag! Støt os! Lyt til os! Brug os! Sammen kan vi skabe en bedre verden for LGBTQI-personer overalt. Og en sådan verden er en bedre verden for hele menneskeheden!"	"NO QUESTION"	NA	.	-1	-1	13127	22811	20	1	1
P52	103	False	experiment	"Tak for ordet, og tak til jer alle, fordi I kom i dag."	"NO QUESTION"	NA	.	-1	-1	2188	22811	21	1	1
P52	104	False	experiment	"NY TALE BEGYNDER NU"	"NO QUESTION"	NA	.	-1	-1	3442	7905	-1	5	5
P52	105	False	experiment	"I slutningen af juli 1852 spadserede en ung kvinde på stierne her ved Rønnebæksholm. Hun øvede sig på at holde tale. Det var snart to år siden, at den danske hær slog slesvig-holstenerne i danmarkshistoriens største slag ved Isted. Nu skulle de faldne mindes, og sejren fejres med en folkefest på kampdagen den 25. juli. Festkomiteen havde sikret sig flere af tidens berømtheder som hovedtalere, blandt andre et par af Grundlovens fædre: Digterpræsten Niels Frederik Severin Grundtvig og Carl Ploug, digter og redaktør af avisen Fædrelandet samt Peter Rørdam, en populær bondepræst i Mern."	"NO QUESTION"	NA	.	-1	-1	22828	7905	0	5	5
P52	106	False	experiment	"Da festdagen nærmede sig, rygtedes det, at Mathilde Fibiger også ville tale ved mødet. Det var en sensation! Aldrig før havde en kvinde talt ved et offentligt møde. Og så netop denne kvinde – bare 21 år, berømt og berygtet for at have skrevet romanen Clara Raphaels breve. Mathilde Fibiger var den første i Danmark, som i romanform agiterede for 'damernes emancipation', som hun kaldte det. Hun skrev i en tid, der var gennemsyret af det akademiske borgerskabs og bondestandens oprør mod enevælden, den glødende nationalisme i treårskrigen (1848-51) og Grundlovens indførelse af borgerlige frihedsrettigheder."	"Spørgsmål:\nVar Mathilde Fibiger forfatter som 21-årig?"	1	1	2564	1	21874	7905	1	5	5
P52	107	False	experiment	"Den unge forfatterinde berusede sig i liberalismens idé om det enkelte menneskets ret til at søge sin lykke gennem at udvikle sin personlighed og intellekt. Tankens frihed måtte også gælde kvinder, mente hun. Den idé kom til at koste hende dyrt."	"NO QUESTION"	NA	.	-1	-1	134	7905	2	5	5
P52	108	False	experiment	"Mathilde Fibigers roman er bygget op som hovedpersonens 12 breve til en veninde. Romanens hovedperson, Clara, ligner sin forfatter til forveksling. Hun er privatlærerinde i provinsen og her bringer hun utålmodigt politik og litteratur på banen ved middagsbordet og ved sammenkomster i omgangskredsen. Men Clara finder ingen genklang – kun løftede øjenbryn og hovedrysten over sine interesser og snaksalighed."	"NO QUESTION"	NA	.	-1	-1	25886	7905	3	5	5
P52	109	False	experiment	"I et let og livligt sprog lader Mathilde Fibiger Clara udfolde sine skarpe iagttagelser af, hvordan moral og konventioner holder kvinder indespærret i et åndeligt fattigdomsfængel, og fra brev nr. 3 runger et ulykkeligt skrig gennem historien: 'For første gang i mit liv føler jeg sorg over at jeg ingen mand er. Hvor fattigt og indholdsløst er ikke vort Liv imod deres? Er det med rette at de halve Mennesker er udelukkede fra al åndelig beskæftigelse? Eller har virkelig Vorherre skabt os af ringere Stof end mændene?'"	"NO QUESTION"	NA	.	-1	-1	21039	7905	4	5	5
P52	110	False	experiment	"Mathilde Fibiger krævede hverken stemmeret, ret til uddannelse eller arbejde. For hende var kernen i 'damernes emancipation' kvindens ret til at udvikle sin ånd og sit intellekt på lige fod med mænd. Eller snarere er det kvindens pligt – hun skriver i Clara Raphael, at 'Gud i hvert menneske har villet udtrykke en guddommelig idé og en særskilt i hver.'"	"NO QUESTION"	NA	.	-1	-1	14387	7905	5	5	5
P52	111	False	experiment	"Nutildags lyder det ikke af meget, men det var uhyre radikalt tænkt i en tidsalder, hvor idealkvinden var hustru, mor og sin mand underdanig; hvor kvindens livsopgave var at pleje sin mand som en potteplante, så han kunne udfolde sine potentialer bedst muligt, og dertil at opdrage sine drenge- og pigebørn til at betragte dette forhold mellem kønnene som naturligt. Derfor var bogens slutning så provokerende: Mathilde Fibiger lader Clara forelsker sig i en ung, smuk og klog baron. "	"NO QUESTION"	NA	.	-1	-1	24022	7905	6	5	5
P52	112	False	experiment	"De hede følelser er ved at føre hende bort fra sit religiøse livsprojekt, nemlig at udvikle det frø af ånd og intellekt, Gud har sået i hende – det ved Clara jo er umuligt for gifte kvinder – og for at få det hele til at gå op, lader Mathilde Fibiger de to elskende forenes i et broder-søsterligt ægteskab."	"NO QUESTION"	NA	.	-1	-1	11592	7905	7	5	5
P52	113	False	experiment	"Romanen vakte almindeligt ramaskrig og en længere litterær fejde. Flertallet af anmeldere var rent ud forargede både over emancipationskravet og cølibatægteskabet – begge dele var i modstrid med både Guds vilje og naturens orden."	"NO QUESTION"	NA	.	-1	-1	7672	7905	8	5	5
P52	114	False	experiment	"Mathildes familie blev opbragt over, at hun havde udgivet en roman uden deres vidende, så hun blev hentet hjem fra sit lærerindejob på Lolland, og anbragt hos en farbror. Her mødte hun Grundtvig, som havde anmeldt romanen rosende, og Grundtvigs hustru, Marie Toft, som ejede Rønnebæksholm – en arv fra hendes første mand. Marie Toft var en klog og viljestærk kvinde – og havde som andre enker personlig myndighed og råderet over sin formue."	"NO QUESTION"	NA	.	-1	-1	18791	7905	9	5	5
P52	115	False	experiment	"Hun drev godset eksemplarisk, og var landbrugspolitisk fremsynet, tilbød eksempelvis tidligt godsets fæstebønder deres gårde til arvefæste, og senere til selveje. Da den offentlige blæst om romanen havde lagt sig, tillod Mathilde Fibigers storebror Axel, der var hendes værge, hende at bo hos ægteparret på Rønnebæksholm i nogle måneder. "	"NO QUESTION"	NA	.	-1	-1	19543	7905	10	5	5
P52	116	False	experiment	"Og det var her, at Grundtvig opfordrede Mathilde til at kaste sig ud i vovestykket med den offentlige tale ved mindefesten i Næstved, og derfor travede hun nu af sted og forberedte sig på begivenheden ved at tale højt for sig selv, skovens fugle og markens dyr."	"NO QUESTION"	NA	.	-1	-1	8691	7905	11	5	5
P52	117	False	experiment	"Snart løb rygtet, og det nåede Mathildes familie. Hendes søskende tog affære som om, der var en naturkatastrofe under opsejling; de anså rent ud Mathilde for at være utilregnelig. En bror skrev til festkomiteens formand, og nedlagde på familiens vegne forbud mod talen, Axel og storesøster Ilja skrev til henholdsvis Grundtvig og Marie og bad dem hindre Mathilde Fibiger at forlade Rønnebæksholm. Men det ønske kom de ikke langt med. I sit svar understregede Marie Toft, 'at hverken Grundtvig eller jeg anser os for berettigede til at lukke Deres søster inde.'"	"NO QUESTION"	NA	.	-1	-1	25883	7905	12	5	5
P52	118	False	experiment	"På trods af støtten fra sine indflydelsesrige værtsfolk fik Mathilde Fibiger aldrig lov til at holde sin tale for andre end markens dyr og fugle. I samme øjeblik hun besteg festens talerstol, gik et stort mandfolk, godsejeren fra Flensborggården, hurtigt bag om ryggen på hende, og med et rask tag om hendes smalle liv løftede han hende ned på jorden. Dér stod hun så til spot for festens deltagere. Om nogen – for eksempel Grundtvig – gjorde indsigelser mod denne håndfaste behandling af en ung kvinde med høje frihedsidealer, melder historien intet om."	"Spørgsmål:\nHoldt Mathilde Fibiger sin tale fra talestolen?"	2	2	5615	1	27155	7905	13	5	5
P52	119	False	experiment	"Mathilde Fibiger er en af danmarkshistoriens heltinder. I en tid, hvor både gifte og ugifte kvinder var personligt og økonomisk umyndige, insisterede på at klare sig selv økonomisk, og selv bestemme, hvor hun boede, og hvilket arbejde hun tog. Hendes storebror og værge insisterede på, at det bestemte han. Til sidst så Mathilde ingen anden udvej end at true ham med de magtesløses våben: 'Fra den tid af, da du kan have dette brev, begynder jeg at sulte mig; hvis jeg ikke skal sulte ihjel, må jeg snarest muligt have dit klart og tydeligt affattede skriftlige samtykke til min plan. Du kan ikke gøre regning på at få Grundtvigs til at hindre det. De ville ikke anvende, og de tåler heller ikke, at nogen vil øve vold imod mig, så længe jeg er hos dem.' "	"NO QUESTION"	NA	.	-1	-1	35069	7905	14	5	5
P52	120	False	experiment	"'Nu skal vi se, om ikke den stærkeste bliver mig, skønt jeg er svagest; thi jeg kæmper for min frihed, der er mig kærere end livet!'"	"NO QUESTION"	NA	.	-1	-1	10477	7905	15	5	5
P52	121	False	experiment	"Så fik Mathilde Fibiger sin vilje. Ung, umyndig, men egensindig, modig og viljefast klarede hun sig selv, i de første år på sultegrænsen som skjortesyerske. Senere hjalp indflydelsesrige mænd hende til en uddannelse som Danmarks første, kvindelige telegrafist og ansættelse som første, kvindelige statstjenestemand. Og bemærk, hvor mange mænd, der hjalp hende. Kampen for ligestilling mellem kønnene har nemlig altid stået mellem demokratiske kvinder og mænd mod udemokratiske kvinder og mænd."	"NO QUESTION"	NA	.	-1	-1	25397	7905	16	5	5
P52	122	False	experiment	"Balladen om Mathilde Fibigers festtale og hendes vanskeligheder med at få lov til at leve et selvstændigt liv, viser i hvor lille grad Grundlovens frihedsrettigheder til at tale og tænke og tro og leve som man vil omfattede kvinder."	"NO QUESTION"	NA	.	-1	-1	11772	7905	17	5	5
P52	123	False	experiment	"Men det gik trinvist fremad, og i 1925 var der stort set opnået formel ligestilling i politik, i retten til uddannelse og i ægteskabet, hvor gifte kvinder i 1922 langt om længe fik forældreret til de børn, de fødte i ægteskabet, på lige fod med faren."	"NO QUESTION"	NA	.	-1	-1	11655	7905	18	5	5
P52	124	False	experiment	"Men oldnordiske tankemønstre blev ved at præge mentaliteten, og det mærkede jeg selv som barn og ung. I slutningen af juli 1969, altså for snart 50 år siden, rejste amerikanerne ud i rummet for at plante Stars and Stripes på månen. Neil Armstrong satte foden på det ukendte land med ordene: 'et lille skridt for mig, men et gigantisk spring for menneskeheden'. Jeg var 12, så det på sort-hvidt fjernsyn som et eventyr helt i forlængelse af mine yndlingsbøger: Ivanhoe, De Tre Musketerer og En Verdensomsejling Under Havet. "	"NO QUESTION"	NA	.	-1	-1	21038	7905	19	5	5
P52	125	False	experiment	"Så snart jeg kom i skole, overtalte jeg sammen med nogle kammerater vores geografilærer til at tale om månerejser. Han var lige så fascineret som os og fortalte malende om vores solsystem og rumfartsprogrammet. Men en vigtig ting kom han slet ikke ind på, så jeg stak fingeren i vejret og spurgte undrende: 'Hvorfor er der ingen kvindelige astronauter?'"	"NO QUESTION"	NA	.	-1	-1	12344	7905	20	5	5
P52	126	False	experiment	"Så lagde han cerutten i tavlens kridtrende – jo, dengang måtte lærerne ryge i klasseværelset! – lænede sig ud over katederet, rømmede sig, og sagde med alvor i stemmen: 'Det er, fordi kvinder har menstruation'. Jeg kan stadig mærke skammen stiger op i kroppen. Menstruation var ikke noget, man nævnte når der var drenge til stede. Med en enkelt sætning satte han, min beundrede lærer, mig uden for den store spændende verden sammen med mine veninder, vores mødre, tanter og lærerinder. Pludselig gik det op for mig, at det var drengekammeraterne i klassen, der skulle være opdagelsesrejsende, musketerer og astronauter – selvom mange af dem var ikke nær så gode til matematik og geografi som jeg og mine bedste veninder."	"NO QUESTION"	NA	.	-1	-1	29392	7905	21	5	5
P52	127	False	experiment	"Jeg hævnede mig ved at glemme min geografilærers navn, men har ofte sendt ham en knytnæve i tankerne - som da jeg løb et maraton i 1986 ... med menstruation. Det var blot fire år efter, at den Olympiske Komité endelig gav kvinder lov til at løbe maraton til de olympiske lege. Senere i livet har jeg brugt geografilæreren som argument overfor folk, der hævder, at verden ikke bliver bedre, fordi der kommer en kvindelig statsminister, professor, biskop eller kvinder på andre magtfulde poster i samfundet. 'De fører jo samme politik som mænd,' lyder argumentet. Ja vist. Men derfor er verden nu alligevel blevet bedre for 12-års piger, som i dag har udkig til voksne kvinder, der har rokket alvorligt ved antagelserne om, hvilke grænser biologien sætter for kvinders livsudfoldelse."	"NO QUESTION"	NA	.	-1	-1	31501	7905	22	5	5
P52	128	False	experiment	"Min mor – hun hed Lilly – tilhørte sidste generation, som blev opdraget med, at kvindens mål og pligt i livet er at holde hjemmet skinnende, ungerne vandkæmmede og manden så tilfreds, at han villigt går på arbejde og henter en løn hjem, der kan forsørge familien. I 1960 var der i Danmark 860.000 hjemmegående husmødre, der blev forsørget af deres mand. 30 år senere i 1990 var arbejdsstyrken steget med 800.000 personer – de 700.000 var kvinder. Og så skiftede forestillingen om den perfekte kvinde og det ideelle kvindeliv. Ægteskabet holdt op med at være 'den bedste sociale elevator for kvinden', som sociologiprofessor Svalastoga skrev i 1959. Det var en revolution."	"NO QUESTION"	NA	.	-1	-1	34708	7905	23	5	5
P52	129	False	experiment	"I dag er kvinders sociale anseelse hovedsagelig afhængig af deres status på arbejdsmarkedet, uanset om de er gift eller ej. Ingen forældre råder nu til dags deres pigebørn til at finde sig en god forsørger. En god uddannelse, så man kan forsørge sig selv – og børnene, hvis man engang bliver skilt – er et meget bedre råd. Samtidig har forældreskabet ændret sig; bortset fra bilernes omfang er den største ændring i gadebilledet de mange mænd med børn i barnevogne, i bæreseler, på cykler og ved hånden. Det så man kun meget sjældent, da jeg var barn."	"NO QUESTION"	NA	.	-1	-1	16223	7905	24	5	5
P52	130	False	experiment	"Ændringerne i forholdet mellem mænd og kvinder er gået hurtigt, ofte hurtigere end følelserne har kunnet følge med til, og med mellemrum bølger længslen efter gamle dages mere skarptskårne kønsroller. Nostalgien afspejler kvindebevægelsens evige dilemma: Ligesom andre store revolutionerende bevægelser, har kvindebevægelsens selvforståelse været, at feminismen bevæger samfundet fra undertrykkelse mod frigørelse, fra ufornuft mod fornuft, fra mørke mod lys - kort sagt, at de ændrede kønsroller, og frem for alt kvindernes indtog på arbejdsmarkedet, er et ubetinget historisk fremskridt. "	"Spørgsmål:\nMener kvindebevægelsen at kvindernes indtog på arbejdsmarkedet er et ubetinget historisk fremskridt?"	1	1	7500	1	19164	7905	25	5	5
P52	131	False	experiment	"Og den selvforståelse giver problemer: For hvordan kan det moderne familieliv med fuldtidsarbejde og børn, karriere og hus- og havearbejde kaldes et fremskridt, når det indimellem gør så ondt, at mange får lyst til at træde et par skridt tilbage i tidsmaskinen?"	"NO QUESTION"	NA	.	-1	-1	18940	7905	26	5	5
P52	132	False	experiment	"Hvis man kaster et blik i statistikkerne, er der en påfaldende samtidighed i stigningen af antallet af mennesker, der er ramt af alvorlige stress-sygdomme, antallet af skilsmisser og utilpassede børn – og så det forhold, at danskere gennemsnitligt bruger flere timer dagligt på løn- og husarbejde end for 20, 30, 50 år siden. Tid, der tidligere blev brugt på socialt samvær med familie, venner og naboer. Sådanne statistikker råber på en kulturkamp, som sætter menneskers hverdagsliv i centrum. For det er da paradoksalt, at økonomerne pukker på, at vi danskere skal arbejde mere for at få råd til velfærd, mens undersøgelse på undersøgelse viser, at flertallet af danskerne synes, at mere fri tid er det største velfærdsgode. Hører I det, derinde i regeringsforhandlingerne på Christiansborg."	"Spørgsmål:\nHenviser taleren til statistik, der viser at danskerne gennemsnitligt bruger mere tid på løn- og husarbejde end for 30 år siden?"	1	1	8965	1	27746	7905	27	5	5
P52	133	False	experiment	"Den nostalgiske længsel efter gammeldags familiemønstre afspejler også, at moderne mandlighed og kvindelighed ofte opleves som i strid 'naturens orden'. Den største erkendelse, jeg har fået gennem arbejdet med at skrive danmarkshistorie ud fra kvinders perspektiv, er, at naturen, dvs. kvinders og mænds biologi, altid er blevet brugt konservativt som argument mod kvinders frigørelse og ligestilling mellem kønnene."	"Spørgsmål:\nHar taleren skrevet om danmarkshistorie?"	1	1	3177	1	12741	7905	28	5	5
P52	134	False	experiment	"I dag er kønnet i langt mindre grad en spændetrøje end for 100 eller 50 år siden, men der florerer stadig mange myter om ægte kvindelighed og ægte mandlighed, som gør os til kopier af idealforestillinger, i stedet for originale personligheder. Og de myter skal vi i fællesskab blive ved med at punktere, så vi hver især får plads til at være og udfolde os, som vi er. Mathilde Fibiger indledte kampen på kvindernes vegne – og livet kan kun blive mere mangfoldigt og rigt ved at fortsætte på alles vegne. "	"Spørgsmål:\nMener taleren at køn stadig er en spændetrøje for nogen?"	1	1	4898	1	24627	7905	29	5	5
P52	135	False	experiment	"Vi kan kun undgå moderne heksejagte, racistiske og sexistiske hetzbølger, shitstorme og mobbeofre, ved at efterleve den frihedstanke i Grundloven, som berusede Mathilde Fibiger: Du kan tænke og tale og tro og leve som du vil – så længe du ikke sætter din nabos frihed på spil."	"NO QUESTION"	NA	.	-1	-1	13080	7905	30	5	5
P52	136	False	experiment	"Rigtig god skt. Hans aften til jer alle."	"NO QUESTION"	NA	.	-1	-1	2907	7905	31	5	5
P52	137	False	experiment	"NY TALE BEGYNDER NU"	"NO QUESTION"	NA	.	-1	-1	3107	18561	-1	5	5
P52	138	False	experiment	"Kære alle sammen\nJeg tror, alle har en historie om en lærer, der på en eller anden måde har gjort en forskel for os. En lærer, der så vores talent, støttede os i en svær tid eller gjorde os nysgerrige efter at lære mere."	"NO QUESTION"	NA	.	-1	-1	7329	18561	0	5	5
P52	139	False	experiment	"Flemming, min klasselærer, var sådan en lærer. Vi havde ham i dansk igennem 7 år. Han var et trygt og sikkert anker for os. Han var god til at formidle, og så var han til stede i klasseværelset og gjorde det hyggeligt og sjovt at lære."	"NO QUESTION"	NA	.	-1	-1	7593	18561	1	5	5
P52	140	False	experiment	"Alle børn fortjener en superlærer som Flemming. Den slags lærere er vigtige for sammenhængskraften i vores samfund. Det er dem, der har vores børn i hænderne i 10 år i træk. Det er dem, der skal give vores børn et solidt fundament af faglighed. Og det er dem, der skal udvikle vores børn til at blive kloge, selvstændige og kritiske unge.\nLige om lidt er det jeres tur som lærerstuderende. Og jeg er glad for, at I har taget initiativ til konferencen her, så vi kan få talt om, hvordan vi i fælleskab former fremtidens læreruddannelse."	"NO QUESTION"	NA	.	-1	-1	15701	18561	2	5	5
P52	141	False	experiment	"Som I måske ved, har jeg været rundt i landet for at få læreruddannelsen mere ind under huden. For min holdning er, at jeg gerne vil se – med egne øjne – hvordan det står til, inden jeg konkluderer, hvad vi eventuelt skal forandre. Mit indtryk er, at rigtig mange af jer gerne vil ud og være superlærere. I brænder for at undervise alle slags børn. I er ikke bare optaget af fagfagligheden, men også af at inspirere vores børn gennem god formidling."	"NO QUESTION"	NA	.	-1	-1	25877	18561	3	5	5
P52	142	False	experiment	"Og når jeg spørger, hvad der kan være anderledes, så hører jeg egentlig mere end noget andet; at I gerne vil have mere. Mere undervisning, mere praktik, mere læring. Det er en stor gave, at vi har en studentergruppe, der er så engageret. Så er det vores opgave som politikere at sørge for at imødekomme jer på jeres ønsker så godt, vi kan."	"Spørgsmål:\nØnsker de lærerstuderende - ifølge taleren - mere undervisning?"	1	1	4085	1	12653	18561	4	5	5
P52	143	False	experiment	"Der er særligt én ting, som jeg har lagt mærke til, når jeg har været rundt på de forskellige uddannelser. Ligegyldigt hvor jeg kommer – om det er i Hjørring, Vordingborg eller København – så oplever jeg, at der er et ønske om at få læreruddannelsen tættere knyttet til praksis. Mange lærerstuderene er bekymrede for at komme ud i deres første job. Om de er klædt godt nok på. Det kan jeg godt forstå. Det er en kompleks opgave at være lærer i dag."	"NO QUESTION"	NA	.	-1	-1	18965	18561	5	5	5
P52	144	False	experiment	"Jeg var selv i praktik med Knud, der var i praktik som kemilærer. Så bliver det næsten ikke mere 'meta' end det. Det var sidste mandag, at jeg var i praktik på Søndervangsskolen. Her lærte jeg om svovlsyre i 7A. Men jeg blev også klogere på praktikken."	"NO QUESTION"	NA	.	-1	-1	12535	18561	6	5	5
P52	145	False	experiment	"Det var tydeligt, at Knud – som mange andre studerende – så netop praktikken som højdepunktet på uddannelsen. For ham blev uddannelsen først rigtig spændende, da han mødte virkeligheden på Søndervangsskolen og fik sat liv på alle teorierne. Og fik prøvet sig selv af."	"NO QUESTION"	NA	.	-1	-1	9166	18561	7	5	5
P52	146	False	experiment	"Alle steder hører jeg, at de studerende ønsker mere praktik, mere sammenhængende praktik og en bedre overgang fra auditorie til klasseværelse. Den sammenhæng mellem virkeligheden og det, de studerende lærer på uddannelsen, vil jeg gerne være med til at styrke."	"NO QUESTION"	NA	.	-1	-1	11692	18561	8	5	5
P52	147	False	experiment	"Derfor bliver jeg glad, når jeg hører, at kommunerne kalder sig 'meduddannere'. For det er afgørende, at også kommunerne spiller med. Jeg kan ikke bare lovgive om, at jeres uddannelse skal være bedre knyttet til praksis og så læne mig tilbage. Vi har brug for at tænke det hele sammen og gøre det i fællesskab."	"NO QUESTION"	NA	.	-1	-1	15510	18561	9	5	5
P52	148	False	experiment	"Jeg vil gerne insistere på at balancere den her diskussion. For jeg synes, der er en tendens til, at vi politikere gerne vil signalere viljekraft og slagkraft og sige: Yes, her er noget, der ikke fungerer. Vi laver en ny reform!"	"NO QUESTION"	NA	.	-1	-1	7376	18561	10	5	5
P52	149	False	experiment	"Det er måske derfor, jeres uddannelse har været igennem reform efter reform efter reform i de sidste 20 år. Jeg tror, vi kan gøre det klogere. Jeg tror, vi kan vælge at bruge de rammer, der blev lagt for læreruddannelsen i 2013 bedre. Og så se på – hen ad vejen – hvad der eventuelt kræver en lovændring, hvad der kræver økonomi, og hvad der kræver bedre kobling til det kommunale."	"NO QUESTION"	NA	.	-1	-1	14023	18561	11	5	5
P52	150	False	experiment	"Det andet, jeg gerne vil være med til at styrke og tager meget alvorligt, det er de studerendes trivsel. Vi har alt for mange studerende, der er stressede. Ikke bare op til eksamen. Men også på en helt almindelig hverdag. Der gør mig bekymret. For det kan gå hen og blokere for, at I kan blive superlærere."	"NO QUESTION"	NA	.	-1	-1	9817	18561	12	5	5
P52	151	False	experiment	"Jeg er særligt bekymret for jer på lærerstudiet, fordi I oplever den her stress og mistrivsel dobbelt. På den ene side er I selv en del af en stresset ungdomsgeneration, og på den anden side skal I være klædt på til at rumme, at vores børnegruppe i folkeskolen også er det."	"NO QUESTION"	NA	.	-1	-1	10904	18561	13	5	5
P52	152	False	experiment	"Når jeg er ude og besøge gymnasier og spørger eleverne dér, hvad de laver i deres fritid, så siger de: 'Fritid? Vi laver afleveringer.' De føler ikke, at der er tid til at indgå i fælleskaber. Det at lave sine afleveringer, gøre sig umage og være flittig, fylder det hele. Men hvad så med det fælleskab, der var, da man var spejderleder? Eller fodboldtræner? Eller aktiv i en ungdomsforening? Hvad så med den værdi, det giver at være noget for nogen? Hvad sker der med den, hvis det hele går op i at præstere og få gode karakterer?"	"NO QUESTION"	NA	.	-1	-1	17654	18561	14	5	5
P52	153	False	experiment	"Fælleskaber er vigtige. For vi skal kunne hente vores værdier flere steder fra. Og hvis vi har gode fælleskaber, har vi også nemmere ved at sige: Det blev så ikke til et 12-tal den her gang. Men de børn, jeg er svømmelærer for, dem får jeg smilet frem i."	"NO QUESTION"	NA	.	-1	-1	12836	18561	15	5	5
P52	154	False	experiment	"En ting er sikkert: Vi har brug for, at I trives som lærerstuderende. Så I har overskud til at lære og være nysgerrige og blive klogere. For det er også det lys, de skal ud og tænde i elevernes øjne. Nysgerrighedens lys."	"NO QUESTION"	NA	.	-1	-1	11301	18561	16	5	5
P52	155	False	experiment	"Jeg synes, I lærerstuderende er heldige. I kan se frem til – om ikke det fedeste – så det næstfedeste job i verden: jobbet som lærer. Derfor vil jeg gerne sige tak til de lærerstuderende for at tage initiativ til konferencen i dag. I skal vide: Jeres uddannelse er vigtig for mig. Jeres uddannelse er vigtig for regeringen. Jeg er sikker på, at fremtidens fantastiske læreruddannelse, er noget, vi kan skabe i fælleskab."	"NO QUESTION"	NA	.	-1	-1	13003	18561	17	5	5
P52	156	False	experiment	"Tak for ordet."	"NO QUESTION"	NA	.	-1	-1	1520	18561	18	5	5
