Session_Name_	Trial_Index_	Trial_Recycled_	condition	text	question	expected_key	QUESTION_KEY_PRESSED	QUESTION_RT	QUESTION_ACCURACY	SENTENCE_RT	speechid	paragraphid	counterbalance	LAST_COUNTERBALANCE
P57	1	False	practice	"NY TALE BEGYNDER NU"	"NO QUESTION"	NA	.	-1	-1	5032	1327	-1	0	0
P57	2	False	practice	"Hej alle sammen!"	"NO QUESTION"	NA	.	-1	-1	3306	1327	0	0	0
P57	3	False	practice	"Som I allerede ved, vil vi om lidt tænde for et bål, der vil brænde et skab af – det skab, vi har følt os begrænset af, indelukket i, og som de fleste af os er brudt ud af for at kunne blive lykkeligere."	"NO QUESTION"	NA	.	-1	-1	14196	1327	1	0	0
P57	4	False	practice	"'Men skabe er da ganske praktiske til opbevaring af mangt og meget, ikke sandt?' Jo, opbevaring af værdier, det er rigtigt – men når vi først begynder at sætte spørgsmålstegn ved disse værdier, så føles skabet mere og mere trangt, for det kan ikke rumme vores ideer og følelser mere."	"NO QUESTION"	NA	.	-1	-1	20295	1327	2	0	0
P57	5	False	practice	"'Jamen hvad er der i det skab?' Der er en opfattelse af at kvinder og mænd skal tænke, føle, klæde sig og handle forskelligt – fordi nogle er kvinder og andre er mænd. Kønsroller kalder vi det. Men det rækker faktisk meget længere end bare til roller, vi spiller – rollerne invaderer vores tanker og vores følelser, så vi næsten ikke kan tænke uden for rollen, så længe skabet omslutter os, og i hvert fald først og fremmest føler vi må tage hensyn til dem, der er i skabet..."	"Spørgsmål:\nMener taleren at kønsroller både påvirker hvordan vi handler og tænker?"	1	1	12253	1	32274	1327	3	0	0
P57	6	False	practice	"Når vi endelig bryder ud af skabet og for alvor viser og siger det, der ikke passer i det normative skab, kan vi godt opleve negative reaktioner – men så sandelig også positive – for vi er jo slet ikke alene!"	"NO QUESTION"	NA	.	-1	-1	16838	1327	4	0	0
P57	7	False	practice	"Der er nemlig andre som ligner os mere eller mindre, vi er en broget og mangfoldig flok i alle aldre, hudfarver, kulturelle baggrunde, med og uden handicap, med og uden tro, af forskellig politisk overbevisning, og – vigtigst for os her: af flere forskellige kønsidentiteter og seksuelle orienteringer."	"NO QUESTION"	NA	.	-1	-1	25930	1327	5	0	0
P57	8	False	practice	"Fælles for os er, at vi er en regnbueminoritet i forhold til flertallets skab – men det betyder ikke at majoriteten har ret. Vi vil udefra informere om, at der er andre måder at se tingene på, tilbyde et alternativt syn på livet og verden, som kan hjælpe nogle – især børn og unge – ud af et skab, de mistrives i."	"Spørgsmål:\nMener taleren at minoriteter bør tie med deres verdenssyn?"	2	2	8318	1	26656	1327	6	0	0
P57	9	False	practice	"Lad os brænde skabet med normerne, så vi frigøres fra dem og får retten til at være dem, vi faktisk er!"	"NO QUESTION"	NA	.	-1	-1	10658	1327	7	0	0
P57	10	False	experiment	"NY TALE BEGYNDER NU"	"NO QUESTION"	NA	.	-1	-1	2689	12063	-1	2	2
P57	11	False	experiment	"Lys, der varer ved. Bål, der slår gnister. Glade stemmer, der blander sig med hinanden. Studenterhuer, der viser sig overalt i gadebilledet. Sommerferie, der står for døren. Fællessang, der luner. En kold øl."	"NO QUESTION"	NA	.	-1	-1	15378	12063	0	2	2
P57	12	False	experiment	"'Vi elsker vort land, men ved midsommer mest'."	"NO QUESTION"	NA	.	-1	-1	4399	12063	1	2	2
P57	13	False	experiment	"Uanset hvilken melodi, man synger på, hvilket næb man synger med, eller hvilken hue, man har på til anledningen, så er midsommer og sankthans bare indbegrebet af Danmark."	"NO QUESTION"	NA	.	-1	-1	13282	12063	2	2	2
P57	14	False	experiment	"Til sankthans er 'sommerens hjerter så varme, så glade'. Her 'går ungdom til dans'. Og det hele passer derfor også så fortrinligt til en fest som den, vi har her i aften tæt ved Domus Felix, et hus, hvis navn er latin og betyder noget med glædens hus, det glade hus, med plads til fornøjelse."	"NO QUESTION"	NA	.	-1	-1	25040	12063	3	2	2
P57	15	False	experiment	"Vi har heldigvis så meget at være glade for i Danmark, og også her ved det glade hus i selskab med masser af glade mennesker i Lejre."	"NO QUESTION"	NA	.	-1	-1	8483	12063	4	2	2
P57	16	False	experiment	"Kun finnerne er lykkeligere end danskerne, viser den årlige rapport med titlen 'World Happiness Report', ifølge TV2. Men vi er foran både Norge, Sverige og Canada og flere andre gode lande. Og allernederst er lande som Sydsudan, Yemen og Haiti med ufattelige mængder af dræbte i krig, borgerkrig og naturkatastrofer."	"NO QUESTION"	NA	.	-1	-1	23008	12063	5	2	2
P57	17	False	experiment	"Vi har en fredelig natur, en stærk kultur, et levende demokrati, i Lejre, på Sjælland, i Danmark. Og vi har lige fået lov til at sige vores mening ved to valg i træk. Vi kan mødes frit, tale frit, tænke frit, udvikle os, modtage undervisning, søge lykken for os selv og for vores børn."	"Spørgsmål:\nNævner taleren at der netop har været valg i Danmark?"	1	2	11408	0	21483	12063	6	2	2
P57	18	False	experiment	"Det er lidt anderledes, end hvad den tyske biskop Thietmar af Merseburg skrev om lige i begyndelsen af 1000-tallet efter at have undersøgt forholdene på vore breddegrader. Biskoppens ord lød:"	"Spørgsmål:\nVar biskop Thietmar af Merseburg tysk?"	1	1	4296	1	14599	12063	7	2	2
P57	19	False	experiment	"'Der er i de egne et sted, der hedder Lederun [Lejre], i det distrikt der hedder Selon [Sjælland]; der er kongedømmets hovedstad. Til dette sted kommer alle folk sammen hvert niende år i januar måned, efter den tid, hvor vi fejrer Herrens tilsynekomst (jul), og der ofrer de 99 mænd og lige så mange heste og hunde og haner i stedet for høge. Sikkert og vist mener de, som jeg tidligere har sagt, at disse vil bevare dem for underverdens magter, og at de vil sone de forbrydelser, de har begået mod dem.'"	"NO QUESTION"	NA	.	-1	-1	38374	12063	8	2	2
P57	20	False	experiment	"Det er min gode, gamle kollega fra Københavns Universitet, Morten Warmind, der har oversat den tekst, jeg læste. Og oversættelsen indgår som et slående citat i et nyt forskningsværk, som en ny kollega fra ROMU lige har været med til at udgive. Citatet trækker på godt og ondt Lejres historie meget langt tilbage i tiden."	"NO QUESTION"	NA	.	-1	-1	20876	12063	9	2	2
P57	21	False	experiment	"Arkæolog Tom Christensen, der i årtier har arbejdet i området, har gennem sit arbejde kunnet finde forbindelser endnu længere tilbage og dokumenteret magt og organisation og imponerende bygnings-konstruktioner i det, vi i dag kender som Gl. Lejre, helt tilbage til sen jernalder og tidlig vikingetid. Det var og er et vigtigt sted, som vi i dag holder sankthansfest ved. Smukt. Rigt. Centralt. Betydningsfuldt. Med fædrene gravhøje, der går årtusinder tilbage."	"NO QUESTION"	NA	.	-1	-1	33404	12063	10	2	2
P57	22	False	experiment	"LEJRE betyder hytte eller telt. Det var et centrum i århundrederne før Gorm den Gamle og Harald Blåtand for flere af de historier om Danmark, som vi siden har bygget vores fællesskab op omkring."	"NO QUESTION"	NA	.	-1	-1	14563	12063	11	2	2
P57	23	False	experiment	"Men det er også meget godt, at vi er kommet videre i menneskesyn og normer. Godt nok synger vi, 'hver by har sin heks, og hvert sogn sine trolde', men vi nøjes i dag da heldigvis med at holde hekse og trolde og andet ondskab i skak med glædesblus, med lys, med hjertevarme, med godt humør, med fællesskab, med overskud."	"NO QUESTION"	NA	.	-1	-1	24598	12063	12	2	2
P57	24	False	experiment	"Det er på vore breddegrader for længst slut med den slags gamle ritualer, hvor mennesker måttes i bytte for andre menneskers liv og lykke."	"NO QUESTION"	NA	.	-1	-1	10265	12063	13	2	2
P57	25	False	experiment	"'Vi vil fred her til lands, sankte Hans, sankte Hans!', synger vi. Og freden kan vindes der, hvor hjerterne aldrig bli’r tvivlende kolde."	"NO QUESTION"	NA	.	-1	-1	10315	12063	14	2	2
P57	26	False	experiment	"Når nogle måske i denne sommer har set et F16-fly med Dannebrogs farver på oppe på himlen, så er det derfor heller ikke et signal om krig, men en venlig påmindelse om, at vi i fred og fordragelighed i år kan fejre 800-året for, at Dannebrog blev vores kongeflag og siden nationalflag."	"Spørgsmål:\nEr Dannebrog 900 år gammelt?"	2	1	3848	0	20304	12063	15	2	2
P57	27	False	experiment	"Vi elsker vort land, men ved midsommer mest."	"NO QUESTION"	NA	.	-1	-1	3660	12063	16	2	2
P57	28	False	experiment	"Det var også i højsommeren 1969, altså for 50 år siden, at et menneske første gang satte sine ben på Månen. Og vi fik billeder retur deroppefra, som viste, hvor lille, hvor skrøbelig, hvor overskuelig og hvor smuk, den runde jord tager sig ud – sådan lidt på afstand."	"NO QUESTION"	NA	.	-1	-1	17563	12063	17	2	2
P57	29	False	experiment	"Og det var i sensommeren 1969, at det senere så populære og folkekære band Gasolin’ med Kim Larsen som forsanger blev til. Gasolin’ og Kim Larsen havde masser af succes dengang. Men de vidste også, at om natten, når lyset brænder ud, og alt bliver stille, så er du, så er jeg, ene og alene."	"NO QUESTION"	NA	.	-1	-1	22101	12063	18	2	2
P57	30	False	experiment	"Det er livets kontrast, som fejringen af sankthans med bål og sange og fællesskab også minder os om. Vi tænder lyset, når mørket er ved at falde på. I mørkets skær, ser vi lyset bedst. Det er i kontrast til stilheden, at vi værdsætter al den pludren, snakken og brummen, som er lyden af fællesskab og fest og glæde."	"NO QUESTION"	NA	.	-1	-1	25724	12063	19	2	2
P57	31	False	experiment	"Det er, når vi tænker på, hvor slemt det var engang, eller hvor ulykkeligt livet kan være i andre lande, at vi opdager, hvor lyst, hvor godt, hvor dejligt, vi i grunden selv har det. Det er, når vi ser på jorden ude fra universet, at vi opdager, hvor skrøbelig den er, og hvor meget, vi har brug for at passe på den og på hinanden. Det er efter en lang stribe af hverdage, at det er så helt vidunderligt at kunne holde fest, sankthansfest, midsommerfest, glædesfest, lysfest."	"NO QUESTION"	NA	.	-1	-1	33608	12063	20	2	2
P57	32	False	experiment	"Og lad så hjertevarmen og glædesblussene holde rigtig, rigtig længe i år. Rigtig god sankthans. Og rigtig god sommer."	"NO QUESTION"	NA	.	-1	-1	8339	12063	21	2	2
P57	33	False	experiment	"NY TALE BEGYNDER NU"	"NO QUESTION"	NA	.	-1	-1	2238	26670	-1	2	2
P57	34	False	experiment	"Kære Studenter\nRigtig hjertelig tillykke med jeres eksamen. I er ved vejs ende og kan puste ud. I har gået på Viborg Katedralskole i tre år. Det har været tre år med masser af hårdt arbejde, danske stile, matematikafleveringer, Studieretningsprojekt, fremlæggelser på klassen og nu til slut diverse eksaminer. Men det har selvfølgelig også været klassefester, Minervafester, galla, studierejser og diverse cafeer. "	"NO QUESTION"	NA	.	-1	-1	27512	26670	0	2	2
P57	35	False	experiment	"Men fælles for jer alle er, at I har brugt masser af kræfter på fagene og skolegangen – ellers havde I ikke siddet foran mig her i dag. Så nu er det tid til at feste og fejre sammen med kammerater og sammen med familien. I har fortjent det, og man hviler så godt ovenpå fuldendt gerning."	"NO QUESTION"	NA	.	-1	-1	23471	26670	1	2	2
P57	36	False	experiment	"Jeg vil også sige tillykke til jeres familie, der har støttet jer og stået bag jer i de tre år I har gået her. For alle os der har været med jer på rejsen hertil er det skønt at være her i dag. Vi glæder os alle sammen med jer og vi er stolte af jer."	"Spørgsmål:\nSiger taleren også tillykke til studenternes familier?"	1	1	3602	1	14600	26670	2	2	2
P57	37	False	experiment	"Nu er tiden på VK forbi. Et kapitel i jeres liv er slut. I er naturligvis glade for at det er ovre. Nu kan I med rigtig god samvittighed nyde, at I er færdige, nyde sommeren, den blå himmel, de mange flag, turene rundt til klassekammeraterne og ja en enkelt øl eller to måske – ja alle de forskellige festlige lejligheder. Det er i det hele taget en særdeles lykkelig tid."	"Spørgsmål:\nOmtaler taleren gymnasiet som 'RK'?"	2	2	2872	1	28069	26670	3	2	2
P57	38	False	experiment	"Lykke – Jeg vil starte med uddrag af et digt om lykken skrevet af Benny Andersen\nder er noget særligt ved lykken\nsom man ellers ikke møder\nmåske ligger fejlen der\nman kender for lidt til den\nburde sætte sig mere ind i den\n– jeg tror at det er en træningssag"	"NO QUESTION"	NA	.	-1	-1	18498	26670	4	2	2
P57	39	False	experiment	"Lykken er noget særligt – noget positivt, men man kender for lidt til den siger Benny Andersen. Han tror det er en træningssag, at man bliver bedre til at være lykkelig, hvis man øver sig. Nu vil jeg dvæle ved hvad det vil sige at være lykkelig, altså at lære den at kende, så kan I kaste jer over træningen bag efter."	"Spørgsmål:\nHar Benny Andersen skrevet digtet om lykke?"	1	1	6049	1	24488	26670	5	2	2
P57	40	False	experiment	"Professor ved Aarhus Universitet Christian Bjørnskov har forsket i lykke og skrevet en bog om emnet. Jeg vil give jer en række citater af ham for på den måde at blive klogere på lykken. Bjørnskov skelner mellem to forskellige former for lykke: den lykkefølelse, der udspringer af lykkelige øjeblikke og så den mere langvarige lykke – det gode liv."	"NO QUESTION"	NA	.	-1	-1	24700	26670	6	2	2
P57	41	False	experiment	"De berusende, lykkelige øjeblikke – lykkeglimt – håber jeg, at I har haft og har mange af for tiden: når en mundtlig eksamen var godt overstået, det øjeblik hvor I endelig fik huen på hovedet af én som står jer nær, når familie og venner kommer for at fejre jer. Den slags lykkelige øjeblikke er vigtige for os. Den slags oplevelser skal helst komme ind i mellem og give os gode minder. Christian Bjørnskov er dog mere optaget af den langvarige lykke – det gode liv. Jeg vil fremhæve nogle af de elementer som ifølge Bjørnskov er med til at skabe det gode liv."	"NO QUESTION"	NA	.	-1	-1	40345	26670	7	2	2
P57	42	False	experiment	"Det første jeg vil nævne, er den personlige frihed, retten til selv at vælge livsforløb er vigtig for menneskers langvarige lykkefølelse. Der er heldigvis mange veje til det gode liv. Det er vigtigt, at man får lov til at vælge sine egne veje. Christian Bjørnskov siger: 'Fornemmelsen for personlig frihed i eget liv er central for folks opfattelse af deres eget liv, det giver dig mulighed for at vælge egen livsstil og –retning og mulighed for at lave ting om'."	"NO QUESTION"	NA	.	-1	-1	29215	26670	8	2	2
P57	43	False	experiment	"I forhold til det sidste 'mulighed for at lave ting om' og dermed påvirke jeres dagligdag og sætte jeres præg på tingene. Den mulighed har mange af jer benyttet jer af i den tid, I har gået her. Mange af jer har mest bidraget i faglige sammenhænge på klassen eller i sociale sammenhænge, hvor I var med til at sikre et godt sammenhold i klassen"	"NO QUESTION"	NA	.	-1	-1	24782	26670	9	2	2
P57	44	False	experiment	"Andre var med i Senatet eller i forskellige former for udvalgsarbejde. Der er fx nogle af jer, som har været med i Grøn VK og på den måde taget en række initiativer på skolen. I har fx delt rundstykker ud til dem som kom på cykel og os der kom i bil måtte undvære rundstykkerne og nøjes med den dårlige smag i munden mens vi dukkede os bag bilruden. Nogle af jer har været med til at lave musicalen 'Enden før begyndelsen'. Heri diskuterede I, hvad det var, det begrænsede jeres frihed. "	"NO QUESTION"	NA	.	-1	-1	36266	26670	10	2	2
P57	45	False	experiment	"Jacob sagde 'Hvis frihed er vores mål, så er det eneste vi skal gøre at fjerne alle de ting, der forhindrer os i at gøre hvad vi vil'. Og så diskuterede I hvad det var - om det var skolen eller det var forpligtelsen til hele tiden at være online. I musicalen klippede I kablet til nettet og gjorde oprør mod skolens stramme rammer."	"NO QUESTION"	NA	.	-1	-1	21517	26670	11	2	2
P57	46	False	experiment	"Nogle af jer har siddet i morgensamlingsudvalget og har gang på gang brugt en aften eller en søndag eftermiddag på at forberede morgensamling for resten af skolen. Nogle af jer har arrangeret velgørenhedsløb for de danske hospitalsklovne, en gruppe har arrangeret galla her i skolegården og meget, meget andet. Et af de sidste aftryk, I har sat på skolen, var en flot 3.g-underholdning på jeres sidste skoledag. Det var en god og sjov afslutning på jeres tre år. I har på mange forskellige måder sat jeres præg på skolen. "	"Spørgsmål:\nRefererer taleren til at eleverne har arrangeret fredagsbar?"	2	2	6860	1	42670	26670	12	2	2
P57	47	False	experiment	"Jeg vil sige jer rigtig mange tak for jeres bidrag. Det er dem, der gør Katedralskolen til et helt særligt sted at være."	"NO QUESTION"	NA	.	-1	-1	6400	26670	13	2	2
P57	48	False	experiment	"I forhold til at bruge den personlige frihed til at vælge livsstil og retning, er der rigtig mange valg at træffe: Hvor og hvordan skal I bo? Alene eller sammen med andre? Og hvis det er sammen med andre, er det så at blive hjemme ved forældrene lidt endnu eller flytte sammen med venner eller en eventuel partner? Og hvor skal det være? I Viborg eller en af de store studiebyer – eller i udlandet? "	"NO QUESTION"	NA	.	-1	-1	22198	26670	14	2	2
P57	49	False	experiment	"Hvad skal I bruge tiden på både på kort sigt og længere sigt? Skal man vælge et sabbatår og ud at tjene penge? Eller et sabbatår og ud at rejse? Eller gå i gang med uddannelsen med det samme? Ja det lyder jo overvældende med de alle de spørgsmål, men jeg vil bevæge mig ud på dybt vand og give mit bud på et svar lige om lidt, men inden da vil jeg komme ind på et par punkter mere vedrørende det gode liv – det lykkelige liv."	"NO QUESTION"	NA	.	-1	-1	27125	26670	15	2	2
P57	50	False	experiment	"Et andet vigtigt punkt i forhold til den langvarige lykke er sociale relationer og det at have tillid til hinanden. I mange tilfælde er vi afhængige af hinanden og afhængige af personer vi ikke kender. Christian Bjørnskov siger: 'Tillid og ærlighed belønnes med tillid og ærlighed. Jo længere tilliden strækker sig til andre mennesker desto mere beskyttet er vi mod mange af de bekymringer, som ellers kunne belaste os ..."	"NO QUESTION"	NA	.	-1	-1	26281	26670	16	2	2
P57	51	False	experiment	"Den helt store konklusion er, at andre mennesker er den vigtigste kilde til vores lykke'. Altså vores familie, vores venner, den rigtige partner, et godt netværk og det at indgå i et fællesskab."	"NO QUESTION"	NA	.	-1	-1	10014	26670	17	2	2
P57	52	False	experiment	"De sidste tre år har en væsentlig del af jeres sociale liv foregået på Viborg Katedralskole både i og udenfor timerne, I har været en del af VK-fællesskabet. For mig personligt har det været en fornøjelse at følge jer på sidelinjen og opleve den gode stemning fx til lektiecafe på biblioteket eller ved et gruppearbejde på balustraden eller i skolegården til aftensmad på kollegiet eller til cafe i Kentauerhaven. Det er nogle af de gode minder om jeres årgang, som jeg vil tage med mig. "	"NO QUESTION"	NA	.	-1	-1	25605	26670	18	2	2
P57	53	False	experiment	"Hvis enkelte af jer skulle blive en smule vemodige ved tanken om at det er slut med VK-fællesskabet og at der er nogle af kammeraterne som I måske aldrig ser igen, så vil jeg med Dr. Seuss’ ord sige: 'Græd ikke fordi det er slut, smil fordi det er sket'. Jeg håber og tror, at I har skabt netværk her på skolen, nogen som bliver ved med at være en del af jeres bekendtskabskreds og nogen I altid vil kunne trække på, så I kan tage en del af VK-ånden og VK-fællesskabet med jer."	"NO QUESTION"	NA	.	-1	-1	32322	26670	19	2	2
P57	54	False	experiment	"Det sidste punkt jeg vil nævne i forhold til den langvarige lykke, er uddannelse, arbejde og karriere. Nu står I ganske vist overfor en velfortjent sommerferie, så lige nu er det sikkert vanskeligt at se arbejde og uddannelse som en vej til det gode liv. I den netop overståede læseferie har det været skolen, som har forhindret jer i det gode liv, men vi glæder os jo netop til ferierne fordi de er afbræk fra hverdagen – vi føler, at vi har gjort os fortjent til dem. Arbejde og studier giver identitet og en følelse af at man bidrager til fællesskabet og til samfundet."	"NO QUESTION"	NA	.	-1	-1	35977	26670	20	2	2
P57	55	False	experiment	"Det giver en følelse af at man hører til og at man har betydning. Tænk bare på en undervisningssituation. Den gode time opstår netop når alle er med og deltager. Eller gruppearbejdet, der ikke fungerer, hvis nogen af gruppemedlemmerne bliver hjemme – særligt ikke hvis det er ham eller hende der har notaterne."	"NO QUESTION"	NA	.	-1	-1	17326	26670	21	2	2
P57	56	False	experiment	"Nu får I dagens sidste citat af Christian Bjørnskov. Han siger det på følgende måde: 'Hvis du vil være lykkelig, skal du arbejde med det, du er bedst til – og har mest lyst til ... Valg af uddannelse og karriere er vigtige beslutninger, som kræver omtanke og fordybelse ... Det kræver, at du mærker efter, hvad der vil gøre dig lykkelig ... Hvis du har brug for tid til at finde dig selv og til at tænke over, hvad du gerne vil, er den tid rigtig godt givet ud'."	"NO QUESTION"	NA	.	-1	-1	29370	26670	22	2	2
P57	57	False	experiment	"Mange slår i disse år på tromme for, at alle unge skal vælge uddannelse hurtigst muligt og gennemføre på kortest mulig tid. For nogle af jer er det et godt råd, fordi nogle af jer ved allerede, hvad I vil læse og har planlagt at starte efter sommerferien – og det er fint. Men der er også mange af jer som ikke har besluttet jer endnu eller som af andre grunde har behov for sabbatår. "	"NO QUESTION"	NA	.	-1	-1	27020	26670	23	2	2
P57	58	False	experiment	"Det er der ikke noget galt med. Man kan foretage sig mange fornuftige ting i et eller flere sabbatår: man kan lære meget af at rejse eller være på højskole og meget andet, men også more sig og mærke livet væk fra lektier, afleveringer og eksaminer. For de af jer, der har brug for tid til at finde jer selv og til at tænke over, hvad I gerne vil, er den tid rigtig godt givet ud, bare I sørger for at få jer en uddannelse, når I er rede til det."	"Spørgsmål:\nMener taleren at der kan komme noget godt ud af at tage et sabbatår?"	1	1	5645	1	29833	26670	24	2	2
P57	59	False	experiment	"Nogle gange kan den personlige frihed og det faktum, at man selv skal vælge sin egen vej, også føles som en belastning. Man kan føle, at man så også står alene med ansvaret. Det vil jeg gerne forsøge at bløde lidt op på. Jeg lovede tidligere i min tale, at jeg ville give mit bud på hvad I fremadrettet skal bruge tiden på – det punkt er jeg kommet til nu. Ikke overraskende er mit svar, at det findes der ikke kun ét svar på. Der ikke kun én lykkelig vej til dét gode liv."	"NO QUESTION"	NA	.	-1	-1	36341	26670	25	2	2
P57	60	False	experiment	"For de fleste af os findes der mange veje og mange forskellige mulige versioner af det gode liv. Et kinesiske ordsprog siger: 'Lykke er ikke en destination, men en måde at rejse på' og vær opmærksom på 'at lykken aldrig bliver mindre af at blive delt'."	"NO QUESTION"	NA	.	-1	-1	13774	26670	26	2	2
P57	61	False	experiment	"For det drejer sig for hver enkelt af jer om at vælge én af flere mulige veje. Hav tillid til jer selv og til hinanden og brug jeres netværk. Påvirk vejen mens I rejser, så bliver det til jeres gode liv. Jeg vil ønske jer rigtig god rejse."	"Spørgsmål:\nOpfordrer taleren studenterne til at bruge deres netværk?"	1	2	6548	0	16281	26670	27	2	2
P57	62	False	experiment	"Med disse ord dimitterer jeg jer som studenter fra VK 2016."	"NO QUESTION"	NA	.	-1	-1	5085	26670	28	2	2
